Trajectories
100
,,Y_Hara_Hand:forearm,,,Y_Hara_Hand:mp,,,Y_Hara_Hand:PIP,,,Y_Hara_Hand:DIP,,,
Frame,Sub Frame,X,Y,Z,X,Y,Z,X,Y,Z,X,Y,Z
,,mm,mm,mm,mm,mm,mm,mm,mm,mm,mm,mm,mm
1,0,333.379730,76.002983,74.378731,323.514954,104.120781,127.181305,275.709564,122.819565,153.944778,126.106781,166.230972,147.719391
2,0,333.375549,75.975754,74.401741,323.509857,104.123016,127.206131,275.685364,122.790421,153.949570,126.097290,166.209183,147.727707
3,0,333.349976,75.989838,74.384689,323.504639,104.121956,127.206352,275.664642,122.776810,153.962280,126.043304,166.195236,147.735718
4,0,333.375366,76.002495,74.397263,323.516663,104.133720,127.216148,275.659882,122.815109,153.949997,126.215950,165.739319,147.411713
5,0,333.427002,76.001678,74.474945,323.523682,104.173744,127.254723,275.665039,122.865204,153.965286,126.214561,165.714111,147.411194
6,0,333.449677,76.034355,74.516930,323.524109,104.239830,127.304794,275.656158,122.897095,153.971802,126.226845,165.697174,147.425110
7,0,333.427643,76.096703,74.529068,323.517639,104.270645,127.320335,275.654022,122.933228,154.007141,126.176804,165.666321,147.455139
8,0,333.409973,76.148247,74.521431,323.490448,104.342621,127.345932,275.649689,122.962509,154.015503,126.152191,165.626617,147.446930
9,0,333.417969,76.199341,74.585304,323.482361,104.372368,127.371490,275.603638,122.955132,154.083694,126.112122,165.613754,147.465485
10,0,333.428711,76.224266,74.620209,323.432648,104.393204,127.411079,275.559692,122.964516,154.087311,126.092064,165.634476,147.490768
11,0,333.416931,76.233109,74.657387,323.408142,104.390625,127.435043,275.507294,122.934151,154.087189,125.898674,165.901306,147.729584
12,0,333.375763,76.208725,74.660477,323.351349,104.368965,127.436516,275.466125,122.896355,154.146088,125.931564,165.879669,147.756958
13,0,333.306091,76.198227,74.686424,323.298950,104.344673,127.450317,275.401672,122.901985,154.131378,125.915497,165.824158,147.691406
14,0,333.290619,76.185112,74.682358,323.270813,104.323563,127.463829,275.380310,122.879974,154.141510,125.866875,165.830429,147.737823
15,0,333.260590,76.196007,74.680298,323.242462,104.333214,127.459702,275.365143,122.883537,154.137604,125.850471,165.873474,147.716415
16,0,333.221619,76.185562,74.683311,323.217163,104.316132,127.461571,275.357086,122.893494,154.118988,125.851791,165.897964,147.668655
17,0,333.244781,76.166939,74.695091,323.239868,104.348366,127.462715,275.340790,122.913292,154.095596,125.900444,165.631760,147.513184
18,0,333.227203,76.220558,74.698799,323.215576,104.390594,127.433182,275.331909,122.973396,154.050003,125.941437,165.635742,147.464050
19,0,333.221069,76.252914,74.697014,323.190796,104.424286,127.431808,275.322601,122.975586,154.069519,125.851646,165.641525,147.469513
20,0,333.242035,76.286415,74.686852,323.175354,104.473099,127.414406,275.315308,123.018005,154.067642,125.870972,165.618576,147.467789
21,0,333.229767,76.331787,74.658371,323.180634,104.514397,127.412766,275.312439,123.061020,154.059143,125.889404,165.669632,147.491730
22,0,333.221619,76.352837,74.693596,323.181122,104.546089,127.420425,275.315399,123.072037,154.079803,125.873924,165.664978,147.471436
23,0,333.214630,76.369507,74.699417,323.172852,104.607590,127.417580,275.297821,123.136284,154.072098,125.853745,165.733521,147.517761
24,0,333.199341,76.381615,74.718750,323.158813,104.633644,127.429802,275.322998,123.165092,154.062057,125.799164,165.732864,147.515503
25,0,333.246033,76.373367,74.738693,323.179230,104.611443,127.431808,275.320801,123.189102,154.065842,125.825508,165.733704,147.485870
26,0,333.224304,76.357941,74.736664,323.162994,104.615532,127.439423,275.316803,123.184715,154.066696,125.838875,165.753815,147.477951
27,0,333.214294,76.352745,74.738861,323.144226,104.590294,127.446877,275.294891,123.172195,154.072037,125.850784,165.737808,147.475555
28,0,333.223938,76.345406,74.770294,323.136505,104.562218,127.468925,275.274170,123.131226,154.076691,125.836182,165.750885,147.469284
29,0,333.164856,76.281898,74.761292,323.129913,104.531624,127.468513,275.268555,123.111046,154.090103,125.824409,165.697617,147.451401
30,0,333.185638,76.297966,74.764305,323.122437,104.527954,127.492249,275.250122,123.111557,154.090012,125.852364,165.699936,147.482681
31,0,333.135376,76.250336,74.781586,323.123322,104.491615,127.489525,275.252686,123.098076,154.090225,125.811264,165.709702,147.442978
32,0,333.175690,76.241661,74.812569,323.112244,104.484680,127.473312,275.241974,123.116493,154.084839,125.818344,165.659409,147.400024
33,0,333.177490,76.214043,74.817680,323.093933,104.489311,127.491982,275.242523,123.118057,154.086853,125.859413,165.702850,147.372925
34,0,333.169098,76.222580,74.841797,323.113708,104.477257,127.511383,275.260284,123.148933,154.091202,125.839386,165.735001,147.387726
35,0,333.155579,76.206886,74.865479,323.112762,104.500069,127.537224,275.246063,123.146660,154.104538,125.861794,165.733032,147.385361
36,0,333.138916,76.209953,74.886581,323.110962,104.494545,127.550919,275.207245,123.131401,154.130157,125.805481,165.698090,147.387695
37,0,333.128479,76.225624,74.901825,323.082275,104.494209,127.570435,275.214539,123.127357,154.144592,125.785095,165.695496,147.403885
38,0,333.180908,76.186111,74.915718,323.063324,104.489868,127.602516,275.200775,123.104553,154.159424,125.763817,165.701294,147.391891
39,0,333.158569,76.162689,74.970062,323.054260,104.462349,127.608147,275.173340,123.097549,154.178879,125.758812,165.723450,147.405487
40,0,333.145691,76.115593,75.020531,323.051971,104.453049,127.632889,275.184937,123.112030,154.182098,125.789940,165.704544,147.400513
41,0,333.143066,76.097977,75.021881,323.045654,104.437630,127.627792,275.171661,123.117798,154.180069,125.823586,165.737976,147.367599
42,0,333.140594,76.102943,75.021698,323.056030,104.465622,127.608940,275.178711,123.141899,154.163437,125.783890,165.739334,147.397751
43,0,333.153290,76.109985,75.003891,323.045563,104.480751,127.596962,275.201843,123.148598,154.127945,125.826073,165.765350,147.366730
44,0,333.146729,76.093346,74.992332,323.079102,104.465034,127.603012,275.202789,123.173401,154.112534,125.836578,165.787766,147.347366
45,0,333.163239,76.117706,74.975586,323.085999,104.475670,127.588646,275.245483,123.202919,154.105927,125.885384,165.772125,147.312759
46,0,333.136475,76.129875,74.907600,323.088989,104.472054,127.559525,275.251465,123.195816,154.105774,125.897629,165.775055,147.305725
47,0,333.169098,76.094009,74.911720,323.127869,104.469635,127.558304,275.253937,123.157639,154.083206,125.907852,165.745514,147.314331
48,0,333.182281,76.101723,74.914146,323.110565,104.434525,127.529366,275.254639,123.143990,154.078613,125.888748,165.726669,147.341339
49,0,333.155609,76.109039,74.901985,323.101776,104.450333,127.527641,275.257660,123.157753,154.077591,125.886604,165.751007,147.309021
50,0,333.154266,76.064476,74.921570,323.090088,104.460693,127.535355,275.227570,123.161934,154.074554,125.767570,166.019012,147.518158
51,0,333.158295,75.990509,74.945030,323.106689,104.449432,127.527176,275.252655,123.151459,154.059662,125.852333,165.738678,147.338593
52,0,333.146210,76.037796,74.919777,323.076111,104.429893,127.505630,275.233398,123.163857,154.059311,125.849007,165.765915,147.278046
53,0,333.104279,76.025475,74.943687,323.048004,104.448547,127.540115,275.220520,123.165962,154.051422,125.795708,165.784378,147.298019
54,0,333.128632,76.007896,74.988289,323.041992,104.446388,127.549782,275.178192,123.174797,154.079758,125.843849,165.774765,147.326157
55,0,333.094543,75.942009,75.007729,323.011749,104.415337,127.564026,275.129639,123.139656,154.096741,125.802963,165.764236,147.320175
56,0,333.073547,75.970573,74.994568,322.994263,104.379753,127.570854,275.135223,123.129868,154.105850,125.795959,165.737457,147.337860
57,0,333.033539,75.910149,74.997093,322.977020,104.367386,127.583130,275.113129,123.125534,154.075531,125.747993,165.775650,147.307770
58,0,333.006653,75.931046,75.031265,322.905457,104.379768,127.563950,275.095642,123.143051,154.067978,125.720055,165.784988,147.244949
59,0,333.019165,75.874733,75.077545,322.917328,104.405548,127.551582,275.086029,123.166405,154.078491,125.785889,165.804214,147.247726
60,0,332.993469,75.923027,74.998749,322.919922,104.415466,127.540184,275.086426,123.188515,154.047226,125.775291,165.821426,147.241455
61,0,332.986633,75.929901,74.983704,322.905731,104.422249,127.557381,275.063995,123.214310,154.053665,125.739220,165.849945,147.267761
62,0,332.975494,75.943901,75.007286,322.902832,104.457787,127.549950,275.074493,123.251411,154.059097,125.643135,166.158646,147.432892
63,0,332.989410,75.962456,75.039101,322.893921,104.484100,127.580864,275.018829,123.275459,154.063919,125.707764,165.891296,147.220856
64,0,332.986206,75.977638,75.126556,322.886902,104.498146,127.642525,275.000275,123.297722,154.117004,125.594315,166.159622,147.391510
65,0,332.969330,75.977509,75.210205,322.807281,104.514885,127.740593,274.967255,123.307198,154.157928,125.593025,166.163559,147.396942
66,0,333.014313,75.927910,75.350784,322.832489,104.541687,127.818016,274.916473,123.353287,154.227814,125.551178,166.182373,147.375854
67,0,333.045746,75.937088,75.508560,322.802948,104.575478,127.961952,274.888733,123.386894,154.266251,125.548553,166.199493,147.337601
68,0,333.088654,75.922745,75.660065,322.781647,104.601089,128.074783,274.866760,123.414848,154.366791,125.534447,166.190094,147.347778
69,0,333.070984,75.911957,75.774635,322.764954,104.638741,128.194901,274.814209,123.449753,154.435501,125.488922,166.241455,147.414536
70,0,333.089813,75.942390,75.856705,322.740082,104.658211,128.272003,274.807251,123.469856,154.511627,125.515137,166.246140,147.403275
71,0,333.109375,75.926529,75.938599,322.748474,104.655190,128.356445,274.766907,123.502571,154.549759,125.543953,166.302673,147.416382
72,0,333.144684,75.923172,76.038307,322.746918,104.689217,128.409409,274.747650,123.541824,154.569870,125.502464,166.294373,147.409027
73,0,333.157867,75.837692,76.005119,322.741119,104.695763,128.446426,274.753143,123.553314,154.590225,125.493156,166.296066,147.380508
74,0,333.182190,75.945358,76.096405,322.732727,104.711662,128.441910,274.734314,123.563164,154.575684,125.495583,166.320923,147.403381
75,0,333.172729,75.890381,75.997231,322.751892,104.737717,128.414108,274.759216,123.594498,154.547668,125.550117,166.366959,147.332550
76,0,333.165314,75.920555,75.952423,322.760223,104.744804,128.384506,274.779480,123.615654,154.521408,125.500587,166.374283,147.351944
77,0,333.176270,75.989952,75.988335,322.767609,104.887260,128.297638,274.797943,123.654655,154.466751,125.500526,166.386703,147.368500
78,0,333.201813,76.021309,75.939018,322.760315,104.892288,128.275879,274.797577,123.640717,154.432617,125.501526,166.387527,147.366714
79,0,333.216553,76.008690,75.932129,322.805206,104.826927,128.287598,274.792938,123.615952,154.424011,125.538902,166.416199,147.376465
80,0,333.253296,76.004501,75.938293,322.783386,104.807327,128.260483,274.798981,123.601639,154.404129,125.532166,166.394440,147.379242
81,0,333.292145,75.996780,75.906296,322.817932,104.775589,128.294601,274.805481,123.591064,154.407639,125.566246,166.332733,147.300491
82,0,333.317688,75.964813,75.920052,322.800995,104.792839,128.334442,274.794373,123.595581,154.436447,125.558693,166.313843,147.318329
83,0,333.373108,75.890144,75.993683,322.813751,104.789284,128.379944,274.767517,123.567329,154.435410,125.575737,166.294785,147.330521
84,0,333.424011,75.888367,76.086655,322.792175,104.762207,128.485092,274.742493,123.545570,154.518799,125.566765,166.315857,147.380295
85,0,333.444122,75.847794,76.183273,322.801575,104.762306,128.582611,274.715576,123.532715,154.573929,125.511673,166.289429,147.348984
86,0,333.397400,75.831322,76.303635,322.782135,104.770737,128.653625,274.689789,123.539131,154.647079,125.567642,166.269623,147.296814
87,0,333.403778,75.873550,76.359169,322.771729,104.749809,128.784439,274.634399,123.574257,154.702362,125.640167,165.923386,147.073166
88,0,333.434082,75.915062,76.554924,322.714233,104.772842,128.927917,274.591339,123.560036,154.772583,125.539246,166.150879,147.229858
89,0,333.577789,75.978836,76.839149,322.686340,104.820633,129.064819,274.532654,123.557259,154.862747,125.420616,166.166962,147.282532
90,0,333.495758,76.040726,76.881332,322.685730,104.874664,129.222168,274.461761,123.569916,154.964859,125.384537,166.132874,147.303253
91,0,333.531036,76.075539,77.047737,322.647339,104.918495,129.371445,274.415283,123.589668,155.063950,125.376854,166.132812,147.313904
92,0,333.561432,76.078941,77.233795,322.653473,104.937653,129.529938,274.367737,123.607597,155.118088,125.373932,166.114670,147.295334
93,0,333.638855,76.067368,77.420914,322.645569,105.002243,129.654434,274.364044,123.651939,155.192993,125.365242,166.086090,147.234863
94,0,333.716400,76.114624,77.586006,322.688751,105.025970,129.784241,274.324158,123.685585,155.275009,125.346169,166.121979,147.299667
95,0,333.879211,76.149010,77.783852,322.691071,105.078453,129.957153,274.305817,123.715057,155.298706,125.324158,166.101608,147.283524
96,0,333.981659,76.163452,77.952484,322.726593,105.132759,130.079147,274.289520,123.766045,155.383118,125.337761,166.108261,147.258926
97,0,334.104279,76.236809,78.098633,322.751587,105.174934,130.204117,274.301788,123.798447,155.419952,125.465691,165.791504,147.036057
98,0,334.195251,76.267548,78.233681,322.768280,105.213142,130.338959,274.299286,123.778984,155.485214,125.413628,166.034729,147.249374
99,0,334.240479,76.278450,78.312126,322.767944,105.235786,130.407898,274.268036,123.755348,155.563431,125.380623,165.989655,147.310959
100,0,334.269897,76.349731,78.335793,322.776764,105.231903,130.473358,274.272949,123.738510,155.574585,125.397461,165.966690,147.314667
101,0,334.349640,76.354980,78.389557,322.751160,105.221642,130.502014,274.244690,123.732277,155.577805,125.442032,165.656754,147.160294
102,0,334.351685,76.410881,78.323326,322.771454,105.234894,130.483505,274.258179,123.680267,155.560318,125.442696,165.628403,147.168869
103,0,334.356873,76.410187,78.314125,322.738129,105.229553,130.469879,274.211945,123.673256,155.552719,125.452461,165.618912,147.132492
104,0,334.341797,76.448166,78.247437,322.708832,105.228050,130.412323,274.194519,123.676804,155.484772,125.416397,165.613693,147.125748
105,0,334.268555,76.419151,78.145424,322.694183,105.225578,130.334366,274.172363,123.675362,155.418503,125.419739,165.610718,147.103165
106,0,334.236786,76.453621,78.125519,322.696228,105.225105,130.274033,274.169556,123.674911,155.398972,125.389519,165.602859,147.106613
107,0,334.183136,76.440300,78.042191,322.693817,105.225677,130.222031,274.154022,123.679863,155.356796,125.316154,165.903412,147.273117
108,0,334.097839,76.495651,77.914635,322.685089,105.272255,130.101990,274.183014,123.758232,155.317596,125.268234,165.980667,147.270172
109,0,334.069061,76.537399,77.811813,322.698700,105.324806,130.033859,274.180389,123.795990,155.260574,125.357941,165.715164,147.036148
110,0,334.021881,76.590889,77.767197,322.679382,105.371986,129.968903,274.197784,123.838387,155.240860,125.380127,165.757034,147.038223
111,0,334.041199,76.668800,77.757019,322.684662,105.437584,129.942413,274.228546,123.902794,155.225098,125.300644,166.059357,147.236008
112,0,334.056396,76.752136,77.698189,322.728943,105.511047,129.926697,274.250458,123.939415,155.227982,125.286224,166.073776,147.227737
113,0,334.019287,76.827904,77.704048,322.681458,105.602768,129.932114,274.217834,124.011795,155.214554,125.316872,166.093369,147.199249
114,0,334.043213,76.869385,77.737518,322.668915,105.631393,129.955612,274.197876,124.016747,155.206604,125.290024,166.091385,147.213531
115,0,334.026642,76.906120,77.757858,322.659210,105.632484,130.000015,274.170807,124.042206,155.280014,125.274437,166.120941,147.263840
116,0,334.016083,76.891739,77.806168,322.642303,105.670753,130.029022,274.135315,124.060135,155.281540,125.240356,166.125290,147.290192
117,0,333.954163,76.907143,77.814888,322.612366,105.657585,130.021606,274.119324,124.058083,155.304947,125.206963,166.129364,147.281479
118,0,333.938416,76.856415,77.836166,322.607605,105.664871,130.022552,274.103455,124.069725,155.308136,125.177872,166.154327,147.297852
119,0,333.916840,76.873856,77.818153,322.581451,105.636070,130.008362,274.098907,124.052551,155.291916,125.166489,166.146774,147.286484
120,0,333.902740,76.856773,77.828049,322.541534,105.618584,130.023682,274.089722,124.043411,155.287384,125.160950,166.153915,147.302307
121,0,333.892975,76.849251,77.840958,322.510895,105.615623,130.042877,274.040253,124.030861,155.298798,125.116837,166.147934,147.345734
122,0,333.899567,76.834328,77.827797,322.515137,105.602692,130.041840,273.995544,124.010872,155.293701,125.071686,166.172806,147.354355
123,0,333.900757,76.848320,77.838203,322.507416,105.623917,130.035614,273.988159,124.042519,155.283279,124.789543,166.196869,147.420013
124,0,333.886627,76.852379,77.821922,322.463623,105.622620,130.024429,273.938049,124.001434,155.241241,124.792801,166.160187,147.407104
125,0,333.865875,76.868019,77.796722,322.427795,105.599686,130.041122,273.918396,124.024490,155.264893,124.758377,166.201645,147.419113
126,0,333.884857,76.854843,77.872353,322.419098,105.591507,130.049072,273.920807,124.032890,155.268723,125.038475,166.143936,147.312866
127,0,333.892120,76.848686,77.916260,322.388336,105.595428,130.082962,273.878723,123.991623,155.290100,124.793068,166.208527,147.399765
128,0,333.824860,76.795998,77.936470,322.362976,105.574150,130.119263,273.837219,124.007065,155.288467,124.778755,166.208420,147.380981
129,0,333.815704,76.793037,77.983978,322.321472,105.566086,130.144623,273.794159,124.014793,155.318085,125.128807,165.820312,147.064987
130,0,333.827972,76.722725,78.054611,322.317169,105.541588,130.213196,273.805939,123.988510,155.347916,124.853592,165.910904,147.183350
131,0,333.799774,76.656021,78.103355,322.297028,105.502365,130.219696,273.783508,123.997841,155.375992,124.840477,166.165253,147.330490
132,0,333.810822,76.655609,78.126694,322.317963,105.480652,130.220581,273.791626,123.992889,155.379639,124.818672,166.214462,147.329697
133,0,333.748138,76.619926,78.096542,322.313293,105.457771,130.194138,273.786133,123.996918,155.358505,125.075340,166.169647,147.190720
134,0,333.746948,76.583191,78.081413,322.273285,105.531151,130.165527,273.781708,124.039040,155.284927,125.057953,166.194580,147.197052
135,0,333.770905,76.576515,78.078362,322.290070,105.510109,130.159698,273.805634,124.034225,155.305557,125.096916,166.244980,147.173859
136,0,333.801208,76.490585,78.144218,322.356567,105.417854,130.201141,273.856049,123.999123,155.335587,124.857872,166.268951,147.231979
137,0,333.814240,76.465355,78.130066,322.346466,105.401276,130.170868,273.889618,123.987358,155.313492,124.842941,166.324310,147.202988
138,0,333.859375,76.504059,78.091949,322.406708,105.480789,130.124207,273.886658,124.044571,155.267746,125.143929,166.335983,147.097794
139,0,333.902496,76.506508,78.092171,322.480591,105.431839,130.147308,273.995972,124.042831,155.291443,125.130028,166.424118,147.142075
140,0,333.987701,76.502922,78.090553,322.532471,105.466911,130.140503,274.055389,124.050621,155.271011,125.180305,166.432220,147.118118
141,0,334.029572,76.514626,78.053535,322.585754,105.426193,130.128464,274.101685,124.035355,155.276459,125.279694,166.439529,147.127975
142,0,334.073151,76.506393,78.056870,322.638611,105.440109,130.124619,274.154022,124.039406,155.257004,125.292732,166.455566,147.133820
143,0,334.122162,76.514404,78.041145,322.685059,105.456253,130.130936,274.182678,124.048157,155.264679,125.323608,166.459335,147.128998
144,0,334.132111,76.483322,78.049904,322.733917,105.421822,130.134445,274.258301,124.028694,155.287308,125.394417,166.461609,147.152847
145,0,334.149017,76.474586,78.047096,322.742340,105.391037,130.143478,274.288116,124.007607,155.271332,125.408813,166.467148,147.140152
146,0,334.180115,76.408531,78.087402,322.721832,105.372421,130.128418,274.304413,123.972069,155.254639,125.413628,166.481918,147.130295
147,0,334.199890,76.358154,78.102699,322.741028,105.338295,130.145401,274.295959,123.968727,155.259521,125.435501,166.468887,147.151596
148,0,334.159760,76.337074,78.129761,322.718079,105.328285,130.162170,274.282959,123.950241,155.286652,125.540123,166.118851,146.867172
149,0,334.135468,76.316544,78.107948,322.685699,105.320526,130.185852,274.213470,123.975426,155.317459,125.444160,166.156937,146.888702
150,0,334.113098,76.307144,78.163673,322.644714,105.299217,130.185089,274.189178,123.979034,155.329620,125.462639,166.192841,146.857590
151,0,334.075684,76.278938,78.202637,322.626373,105.312218,130.203430,274.189697,124.017761,155.318710,125.316727,166.481903,147.074722
152,0,334.009308,76.279999,78.227066,322.591736,105.319389,130.246719,274.156342,124.049118,155.336060,125.279320,166.516403,147.059494
153,0,333.987946,76.272461,78.254181,322.566956,105.362946,130.230591,274.108429,124.084274,155.331833,125.271706,166.492126,147.025330
154,0,333.951569,76.296143,78.264359,322.531311,105.419395,130.248016,274.074982,124.129807,155.334900,125.225426,166.581924,147.020828
155,0,333.959595,76.326988,78.316368,322.528625,105.446976,130.245529,274.062561,124.204018,155.335907,125.231552,166.601242,147.017349
156,0,333.967316,76.398148,78.338020,322.498444,105.536659,130.294067,274.009430,124.242081,155.359055,125.205757,166.627930,147.016296
157,0,333.938904,76.439156,78.331924,322.482147,105.561424,130.294250,274.015839,124.275978,155.360031,125.206085,166.664062,147.011703
158,0,333.941071,76.503166,78.355354,322.440247,105.700974,130.263992,273.945984,124.375343,155.318542,125.160751,166.728348,147.004410
159,0,333.924042,76.543579,78.371643,322.427826,105.671211,130.314590,273.964905,124.368591,155.352310,125.178589,166.764130,147.006744
160,0,333.907684,76.549263,78.361694,322.431854,105.688950,130.317230,273.949646,124.408669,155.352814,125.177803,166.794159,147.034088
161,0,333.859009,76.555969,78.422722,322.391083,105.735085,130.324875,273.906158,124.473930,155.373123,125.195938,166.795670,147.003937
162,0,333.817871,76.532547,78.412018,322.361481,105.745392,130.326691,273.885162,124.491737,155.371063,125.105621,166.850815,147.010666
163,0,333.784149,76.550667,78.430573,322.346985,105.771523,130.325668,273.875977,124.491364,155.351776,124.894119,166.889404,147.060547
164,0,333.760284,76.486694,78.452919,322.324066,105.780159,130.356934,273.861298,124.492836,155.360168,124.907585,166.901199,147.073227
165,0,333.753967,76.494423,78.498810,322.280609,105.747589,130.347946,273.811829,124.504372,155.367493,124.839226,166.909790,147.048477
166,0,333.760498,76.491486,78.524216,322.252197,105.738014,130.362076,273.765564,124.481331,155.389206,124.795074,166.903458,147.081161
167,0,333.754089,76.486122,78.530502,322.207886,105.771057,130.358063,273.733459,124.514336,155.380875,124.733238,166.901855,147.100204
168,0,333.729919,76.427826,78.528816,322.210327,105.764839,130.375885,273.741425,124.481377,155.365234,124.753250,166.889908,147.109253
169,0,333.724701,76.415062,78.541611,322.223816,105.686417,130.422424,273.746979,124.434189,155.419464,124.724228,166.887192,147.092270
170,0,333.713257,76.403343,78.530884,322.221954,105.672058,130.431763,273.736694,124.421608,155.423691,124.794685,166.842484,147.085449
171,0,333.740845,76.414169,78.554230,322.196533,105.707443,130.395645,273.720551,124.446152,155.381775,124.710915,166.861542,147.108978
172,0,333.723511,76.383667,78.544952,322.195099,105.693939,130.380371,273.746002,124.428909,155.378113,124.703575,166.860321,147.120392
173,0,333.727997,76.372871,78.561813,322.192596,105.679504,130.380463,273.747192,124.387146,155.358017,124.724434,166.857895,147.109467
174,0,333.778656,76.366554,78.562775,322.227753,105.578949,130.420364,273.767517,124.350868,155.417435,124.660255,166.858459,147.127853
175,0,333.771240,76.386490,78.584198,322.234528,105.644066,130.443283,273.757812,124.359192,155.405762,124.651634,166.865341,147.127991
176,0,333.734009,76.394814,78.577690,322.200439,105.706383,130.416229,273.695068,124.424698,155.392090,124.628677,166.861267,147.150772
177,0,333.758728,76.356155,78.633644,322.201233,105.703354,130.425934,273.712646,124.458138,155.396027,124.605820,166.857513,147.110550
178,0,333.775543,76.377197,78.646179,322.216278,105.675728,130.452682,273.719208,124.448265,155.416245,124.592323,166.895584,147.139511
179,0,333.718018,76.371735,78.649147,322.166534,105.709930,130.465607,273.690979,124.470207,155.405609,124.631363,166.912277,147.076828
180,0,333.672119,76.396034,78.660446,322.141876,105.733261,130.448181,273.666687,124.506302,155.414902,124.594093,166.954941,147.086929
181,0,333.706879,76.409897,78.680252,322.124878,105.813736,130.437851,273.638885,124.553650,155.392426,124.582664,166.958633,147.105179
182,0,333.693909,76.446793,78.686935,322.139282,105.773468,130.499039,273.655121,124.522781,155.421616,124.582832,166.935623,147.088989
183,0,333.706879,76.477432,78.701279,322.146698,105.785896,130.522400,273.639862,124.507576,155.429382,124.532722,167.000610,147.068863
184,0,333.744812,76.511734,78.715263,322.139404,105.800674,130.569656,273.624756,124.543358,155.433167,124.553406,167.004364,147.074921
185,0,333.735596,76.528152,78.778618,322.117859,105.895958,130.564926,273.580322,124.595963,155.426239,124.566231,167.024872,147.068832
186,0,333.785522,76.526947,78.811821,322.117096,105.853172,130.606155,273.600311,124.584190,155.480377,124.560410,166.987396,147.042648
187,0,333.807953,76.545387,78.844826,322.125031,105.876633,130.640717,273.596893,124.601280,155.469574,124.533615,166.949066,147.039291
188,0,333.825592,76.501617,78.921387,322.122437,105.876915,130.646042,273.605957,124.624130,155.513306,124.473946,166.996841,147.085495
189,0,333.794312,76.522331,78.896004,322.122437,105.885513,130.664642,273.594147,124.633469,155.496216,124.562256,166.948425,147.098587
190,0,333.848236,76.490120,78.941673,322.131622,105.876457,130.671982,273.573944,124.613884,155.515778,124.571793,166.911316,147.069290
191,0,333.823761,76.519371,78.927612,322.123413,105.879234,130.694290,273.572968,124.610390,155.524887,124.631599,166.898422,147.049896
192,0,333.789948,76.532684,78.921051,322.085907,105.887611,130.696976,273.553986,124.617401,155.511688,124.839264,166.847000,146.981277
193,0,333.760712,76.548920,78.921692,322.060760,105.949150,130.641495,273.487396,124.654816,155.457047,124.552948,166.899170,147.103470
194,0,333.680847,76.530289,78.880203,322.006470,105.869011,130.662720,273.489594,124.598366,155.483444,124.834007,166.835556,146.962112
195,0,333.666382,76.533203,78.867325,321.962067,105.928093,130.580994,273.431854,124.636131,155.423981,124.575172,166.872559,147.016373
196,0,333.581421,76.526581,78.836281,321.921844,105.937981,130.569458,273.404449,124.625862,155.444275,124.547195,166.895935,147.022888
197,0,333.572754,76.517105,78.810944,321.919250,105.940178,130.537018,273.421631,124.668579,155.423218,124.773865,166.843063,146.934158
198,0,333.533203,76.534988,78.788353,321.899689,105.956406,130.523148,273.417084,124.678581,155.404816,124.563080,166.890640,146.980865
199,0,333.520782,76.545425,78.740257,321.914612,105.983543,130.491989,273.382202,124.695709,155.380341,124.527893,166.957413,146.999146
200,0,333.554810,76.531479,78.754303,321.895294,106.006310,130.481201,273.391602,124.741570,155.372406,124.797104,166.902252,146.907608
201,0,333.550812,76.585289,78.769073,321.926483,105.991203,130.502136,273.422516,124.748795,155.385529,124.768578,166.889587,146.887711
202,0,333.533691,76.627907,78.734711,321.900360,106.077942,130.473404,273.391418,124.769035,155.341812,124.484505,166.975449,146.974350
203,0,333.504639,76.673279,78.700615,321.884979,106.109016,130.426605,273.361603,124.813438,155.329163,124.472969,166.971725,146.948273
204,0,333.462128,76.698006,78.696991,321.877014,106.172424,130.411407,273.334259,124.826797,155.295349,124.481384,166.939606,146.953781
205,0,333.450195,76.710861,78.672928,321.847931,106.166489,130.427017,273.339203,124.829681,155.335129,124.458130,166.930298,146.979279
206,0,333.398804,76.698280,78.681740,321.796753,106.162926,130.409241,273.322174,124.842255,155.312790,124.429710,166.953339,146.984421
207,0,333.399689,76.698105,78.682785,321.803406,106.147690,130.400421,273.299500,124.844765,155.297409,124.390152,166.945770,146.986954
208,0,333.397217,76.672142,78.685165,321.790833,106.158684,130.392181,273.289612,124.858368,155.283646,124.386406,166.930008,146.954391
209,0,333.352753,76.709236,78.668900,321.787201,106.179398,130.391464,273.283173,124.888420,155.272629,124.375191,166.945435,146.942612
210,0,333.369232,76.676666,78.681969,321.809448,106.162720,130.407349,273.275848,124.885551,155.280853,124.382797,166.933823,146.954254
211,0,333.314270,76.656044,78.662384,321.766541,106.164261,130.375290,273.269684,124.887077,155.288391,124.300713,166.940704,146.999084
212,0,333.311951,76.664017,78.655411,321.743530,106.183945,130.335648,273.259003,124.897339,155.252792,124.332199,166.922699,146.970016
213,0,333.311401,76.646187,78.629166,321.746338,106.189247,130.315002,273.252899,124.919395,155.250580,124.261925,166.939117,147.001572
214,0,333.302185,76.716652,78.571587,321.716797,106.221489,130.265335,273.244049,124.942696,155.199509,124.282631,166.951355,146.965073
215,0,333.109039,76.643959,78.577187,321.720764,106.238251,130.250916,273.250824,124.974754,155.159821,124.265259,166.950821,146.962555
216,0,333.251617,76.713226,78.533836,321.743439,106.247093,130.218521,273.233490,124.960526,155.142960,124.250313,166.923019,146.986404
217,0,333.262268,76.694298,78.493233,321.711823,106.259705,130.215836,273.251251,124.964493,155.128326,124.203842,166.906906,146.998718
218,0,333.201050,76.705757,78.448189,321.747620,106.234901,130.160965,273.224518,124.924591,155.127258,124.239395,166.879364,147.004547
219,0,333.192810,76.716888,78.410721,321.664734,106.227638,130.126160,273.197784,124.931183,155.082001,124.244743,166.858994,146.964401
220,0,333.163422,76.682076,78.370346,321.639740,106.230980,130.084122,273.203735,124.883621,155.058487,124.214882,166.878647,146.986755
221,0,333.106598,76.674095,78.316788,321.623291,106.182266,130.040802,273.182739,124.877106,155.035461,124.163376,166.871933,147.001358
222,0,333.103088,76.658180,78.290672,321.624603,106.150162,130.003159,273.183105,124.877693,154.986938,124.155746,166.862381,146.976288
223,0,333.064148,76.642136,78.249329,321.614105,106.143478,129.961044,273.149353,124.855949,154.966812,124.146706,166.838882,146.973053
224,0,333.084473,76.643478,78.199036,321.585785,106.148911,129.916977,273.167389,124.873787,154.929382,124.148758,166.841568,146.953522
225,0,333.056580,76.635307,78.197746,321.565826,106.148544,129.889481,273.147705,124.847862,154.930145,124.147217,166.821655,146.958313
226,0,333.093903,76.670227,78.149681,321.579559,106.133591,129.888458,273.176117,124.873360,154.913651,124.159790,166.823639,146.942291
227,0,333.118439,76.666649,78.114807,321.616699,106.144745,129.846390,273.162720,124.859276,154.900986,124.138618,166.795029,146.978607
228,0,333.093628,76.661659,78.092079,321.607422,106.163460,129.831482,273.158844,124.848160,154.874344,124.187309,166.780396,146.976456
229,0,333.087799,76.718811,78.070663,321.564972,106.185051,129.827530,273.153442,124.858681,154.874481,124.176865,166.780533,146.983978
230,0,333.116608,76.705391,78.068932,321.574249,106.146858,129.818130,273.149902,124.834152,154.856064,124.163651,166.771500,146.992737
231,0,333.094788,76.697655,78.065826,321.578735,106.148720,129.808594,273.153656,124.825432,154.858078,124.164375,166.753571,146.979736
232,0,333.103943,76.666069,78.065956,321.566223,106.118324,129.776230,273.141479,124.795570,154.836945,124.162239,166.726074,146.992676
233,0,333.140930,76.667328,78.049988,321.551483,106.115059,129.775589,273.132751,124.788177,154.836273,124.169350,166.706757,146.987488
234,0,333.073944,76.673592,78.002953,321.509125,106.044037,129.798508,273.103821,124.736305,154.865738,124.112373,166.675507,146.987366
235,0,333.010651,76.644737,78.015671,321.486938,106.019669,129.785919,273.066528,124.721390,154.836777,124.097130,166.651611,146.999023
236,0,332.994446,76.662277,77.981102,321.464355,105.992706,129.739029,273.025299,124.699867,154.813995,124.081306,166.611740,146.960297
237,0,332.913086,76.640678,77.924889,321.393707,106.063423,129.666641,272.996399,124.738892,154.773239,124.028061,166.619766,146.987686
238,0,332.858978,76.627052,77.871071,321.359161,106.035545,129.620590,272.972015,124.714409,154.742950,124.021622,166.641556,146.956833
239,0,332.790833,76.615448,77.812675,321.356567,106.040260,129.570496,272.982880,124.713524,154.695145,124.016068,166.656158,146.928680
240,0,332.792786,76.637726,77.747932,321.343536,106.045944,129.521851,272.981171,124.740891,154.638962,123.993210,166.664307,146.933395
241,0,332.793854,76.680466,77.677231,321.353607,106.074295,129.449661,272.993958,124.714752,154.598068,124.017616,166.676956,146.930649
242,0,332.807495,76.673279,77.641159,321.343719,106.072258,129.431458,272.990326,124.706444,154.573380,123.995911,166.674683,146.939346
243,0,332.816101,76.681946,77.592072,321.378113,106.060188,129.378983,273.017365,124.693611,154.523102,124.011787,166.658890,146.932922
244,0,332.849487,76.756462,77.506660,321.385590,106.078804,129.315292,273.020233,124.676521,154.513855,124.051636,166.655426,146.895676
245,0,332.820404,76.744057,77.536110,321.427216,106.011581,129.326035,273.068146,124.627190,154.507599,124.070854,166.638275,146.907043
246,0,332.946198,76.773148,77.505798,321.437714,106.054344,129.301682,273.071655,124.638176,154.467758,124.048645,166.595337,146.902924
247,0,333.038544,76.772240,77.512794,321.437744,106.067001,129.347244,273.087616,124.621498,154.467392,124.090630,166.604080,146.935715
248,0,333.168793,76.764496,77.622704,321.540283,106.086433,129.391602,273.159607,124.560158,154.482544,124.114326,166.570999,146.965744
249,0,333.370453,76.803757,77.751251,321.620209,106.057961,129.536804,273.182068,124.514519,154.521500,124.272179,166.200836,146.779449
250,0,333.666107,76.871140,77.978638,321.646240,106.035851,129.758667,273.186554,124.396568,154.660934,124.258629,166.218750,146.897476
251,0,334.040039,77.052513,78.305115,321.692657,105.995575,130.098587,273.157257,124.211594,154.855148,124.181053,166.122818,147.078262
252,0,334.455322,77.312721,78.811440,321.711426,105.930710,130.649399,273.040253,123.967247,155.161621,124.081482,166.050323,147.353119
253,0,335.050293,77.592796,79.646973,321.653961,105.848747,131.477875,272.805176,123.676704,155.637360,123.839539,165.949005,147.703217
254,0,335.740448,77.933052,80.843323,321.484650,105.870842,132.693451,272.466675,123.320259,156.338242,123.491966,165.761246,148.039566
255,0,336.475586,78.330559,82.546364,321.329315,105.934471,134.232483,272.017761,123.022118,157.293304,123.325043,165.529556,148.399429
256,0,337.474091,78.650322,84.698875,321.120148,106.081192,136.203598,271.470306,122.818535,158.455063,122.737846,165.621918,148.943207
257,0,338.446716,79.003838,87.258011,320.870544,106.275597,138.459015,270.873627,122.779266,159.798370,122.421349,165.298904,149.211166
258,0,339.454163,79.262466,90.293564,320.576599,106.508308,140.998230,270.246643,122.828255,161.260391,121.688049,165.492325,149.817886
259,0,340.509399,79.530396,93.613548,320.303314,106.774689,143.754044,269.656891,122.936020,162.903839,121.332245,165.211014,150.125137
260,0,341.414917,79.764175,97.041473,319.992249,107.146736,146.723785,269.030060,123.130157,164.757172,120.950127,165.177414,150.615829
261,0,341.918335,79.984398,100.345490,319.753632,107.501015,149.612259,268.444122,123.367836,166.649429,120.589516,165.330048,151.274994
262,0,342.397339,80.153625,103.543259,319.505951,107.810287,152.438065,267.943268,123.628586,168.658142,120.541435,165.260391,151.686035
263,0,342.810059,80.438538,106.486206,319.241272,108.064392,155.200638,267.491974,123.877304,170.603912,120.287399,165.509628,152.353394
264,0,342.974426,80.613434,109.343422,319.035095,108.310402,157.879349,267.013885,124.108284,172.579544,120.059792,165.582413,152.857788
265,0,342.996735,80.691879,111.969719,318.856384,108.503075,160.580154,266.594574,124.395073,174.535767,120.106407,165.745865,153.341705
266,0,341.929504,80.852989,114.032005,318.710999,108.704956,163.419968,266.163208,124.615456,176.495865,120.077026,165.891785,153.784775
267,0,340.775085,80.928505,116.018997,318.467377,108.927101,166.302429,265.707855,124.880104,178.524765,120.116287,166.129669,154.091309
268,0,338.641022,81.073212,117.509651,318.298523,109.191673,169.124451,265.199463,125.217079,180.591721,120.247246,166.304077,154.314880
269,0,335.865814,81.164803,118.943207,318.058411,109.466728,171.780319,264.757538,125.615509,182.574997,120.453705,166.485840,154.481461
270,0,332.806366,80.701057,120.179672,317.860504,109.718994,173.939209,264.329437,126.065407,184.305435,120.699821,166.667648,154.490997
271,0,329.391083,80.299942,121.131355,317.609528,109.153397,175.871567,263.867584,126.431183,185.710953,120.989769,166.751297,154.476212
272,0,326.690521,80.025429,121.952141,317.155029,108.061043,177.810883,263.483978,126.687393,186.813385,121.229507,166.806213,154.427261
273,0,323.753632,80.215630,122.367699,316.885742,107.492027,179.112045,263.034332,126.695442,187.795456,121.423752,166.732391,154.393173
274,0,320.890503,80.568443,122.417152,316.793396,107.171974,179.831451,262.632996,126.530930,188.589142,121.493431,166.508606,154.349487
275,0,317.498566,81.121719,122.107086,316.744995,106.541313,180.089920,262.384064,126.295563,189.287674,121.628609,166.227432,154.279541
276,0,314.384033,81.491081,121.487610,316.620728,105.582947,180.033386,262.211090,126.068581,189.829834,121.706696,165.938583,154.220474
277,0,311.740234,81.683281,120.835899,316.398010,104.502602,179.706268,262.170502,125.863342,190.185364,121.798027,165.703720,154.119949
278,0,309.450043,81.697731,120.178833,316.214417,103.496414,179.190750,262.154266,125.643791,190.338089,121.907402,165.563690,153.947769
279,0,307.412231,81.659531,119.493515,316.058990,102.637955,178.466461,262.183655,125.526917,190.331268,122.089233,165.427902,153.709641
280,0,305.178833,81.830849,118.861664,315.916229,101.975639,177.630844,262.240967,125.484871,190.192719,122.476730,165.385162,153.301071
281,0,302.895782,81.776802,118.102684,315.742523,101.247330,176.597717,262.329285,125.480949,190.006577,122.725342,165.339172,152.946915
282,0,299.757172,82.106895,117.429565,315.558777,100.381241,175.442581,262.447296,125.508873,189.799973,123.073509,165.234558,152.524475
283,0,296.986511,82.332108,116.695770,315.275787,99.423286,174.146042,262.605743,125.488281,189.582855,123.256119,165.327148,152.279800
284,0,294.413086,82.750938,115.928123,315.032227,98.576660,172.831772,262.749939,125.361099,189.367371,123.564461,164.985092,151.808334
285,0,291.784424,83.517654,115.119362,314.855377,97.703751,171.474304,262.937408,125.062096,189.144012,123.747612,164.831573,151.595337
286,0,290.266937,83.833733,114.329758,314.643280,96.893150,170.218521,263.104187,124.630272,188.917725,123.754303,164.761276,151.449615
287,0,289.361908,83.857140,114.270554,314.473816,96.155357,168.973618,263.307587,124.246300,188.685059,123.938530,164.676636,151.308868
288,0,286.553192,85.003326,113.055603,314.385345,95.428238,167.775146,263.529907,123.775696,188.443207,124.065849,164.625229,151.199371
289,0,284.942596,85.124504,113.185257,314.287964,94.788071,166.587509,263.809082,123.417328,188.224503,124.213074,164.875565,151.309387
290,0,283.057739,85.808670,112.738823,314.194489,94.230614,165.428452,264.106598,123.210274,188.022293,124.467064,164.873215,151.239075
291,0,281.554382,86.175415,112.418358,314.117523,93.747215,164.307205,264.387817,123.117569,187.816925,124.789352,164.867599,151.126785
292,0,280.729156,85.974213,112.418030,314.073822,93.359192,163.222748,264.712433,123.006660,187.581406,124.962578,164.906387,151.065125
293,0,279.906342,85.835991,112.380730,314.039581,93.039673,162.117096,265.050018,122.866516,187.351059,125.158463,164.913605,151.018280
294,0,279.614563,85.062027,112.550659,314.043152,92.656197,160.966095,265.425873,122.666008,187.116058,125.461563,164.610336,150.807785
295,0,278.279602,86.551300,111.528099,313.955353,92.201385,159.687592,265.837006,122.400711,186.855820,125.840767,164.544846,150.727936
296,0,,,,313.780518,91.668953,158.494705,266.224304,122.090904,186.600403,126.033676,164.537918,150.678711
297,0,277.047058,86.911873,111.087440,313.532990,91.014885,157.329895,266.567902,121.796280,186.361237,126.276550,164.475586,150.592545
298,0,,,,313.248657,90.425179,156.195084,266.854523,121.509743,186.098358,126.410484,164.736130,150.588959
299,0,,,,312.889801,89.968056,155.093552,267.130219,121.280495,185.879684,126.678627,164.654129,150.420364
300,0,,,,312.450256,89.504379,154.086914,267.280945,121.080559,185.711075,127.015770,164.356079,150.032303
301,0,,,,311.961853,89.078445,153.116058,267.423920,120.882004,185.575714,127.035233,164.286636,149.908844
302,0,,,,311.406525,88.656242,152.113022,267.577484,120.715164,185.438583,127.150772,164.425781,149.845154
303,0,,,,310.976227,88.399818,151.132507,267.770599,120.596901,185.306976,127.379684,164.285172,149.636993
304,0,,,,310.574677,88.123901,150.229385,267.973053,120.489265,185.170059,127.557632,164.197601,149.533951
305,0,,,,310.185181,87.832367,149.386780,268.197510,120.378937,185.018112,127.682205,164.079102,149.415085
306,0,,,,309.655151,87.516251,148.490112,268.392365,120.272903,184.936035,127.959755,163.761459,149.121643
307,0,,,,309.059052,87.095795,147.857010,268.504852,120.207764,184.950211,128.016602,163.998444,149.139847
308,0,,,,308.136139,86.638115,147.057251,268.556030,120.181702,184.976181,128.334824,163.987488,148.958847
309,0,,,,307.290924,86.236351,146.234726,268.783844,120.329384,184.926712,128.967880,163.945190,148.731537
310,0,,,,306.651306,85.898941,145.411652,269.192810,120.632965,184.682526,129.272949,163.899994,148.618011
311,0,,,,306.118866,85.471870,144.567444,269.774750,121.048058,184.236267,129.624847,163.919601,148.550720
312,0,,,,305.705414,85.130646,143.593399,270.357422,121.452507,183.677994,129.943893,163.985123,148.415085
313,0,,,,305.489807,84.932663,142.436142,271.084106,121.858673,182.917358,130.348038,164.109879,148.323578
314,0,,,,305.445282,84.716095,141.055237,271.937836,122.181442,181.945480,130.549057,164.143265,148.307114
315,0,,,,305.427063,84.581589,139.439529,272.773071,122.365021,180.749954,130.845184,164.111572,148.204987
316,0,,,,305.487030,84.399590,137.595032,273.641937,122.371613,179.424759,131.113281,164.090622,148.142090
317,0,,,,305.496948,84.149269,135.760422,274.435822,122.303253,178.030960,131.402863,164.042847,147.893143
318,0,,,,305.396179,83.797676,133.849304,275.090027,122.111267,176.612198,131.722321,164.108566,147.551498
319,0,,,,305.284027,83.383247,131.959244,275.756653,121.902191,175.160950,132.284805,164.055862,147.193222
320,0,,,,305.104370,82.925316,130.194901,276.345978,121.616066,173.758118,132.593445,164.013641,146.929977
321,0,,,,304.879395,82.472427,128.378433,276.895325,121.311073,172.347702,132.782349,163.995316,146.703064
322,0,,,,304.705933,81.973328,126.703499,277.466797,120.997467,170.999924,132.995850,163.876328,146.428970
323,0,,,,304.578430,81.554848,125.162544,277.992065,120.674973,169.761444,133.109940,163.778000,146.270508
324,0,,,,304.555969,81.244576,123.788994,278.537231,120.417999,168.729553,132.991730,163.638031,146.270691
325,0,,,,304.535309,81.046448,122.588364,278.985657,120.252617,167.820328,133.058472,163.514343,146.238647
326,0,,,,304.503540,80.849106,121.630852,279.422333,120.108879,167.062515,133.159225,163.398926,146.266907
327,0,,,,304.448822,80.792923,121.018074,279.730835,120.107994,166.551514,133.265747,163.359024,146.242035
328,0,,,,304.426575,80.730362,120.774628,279.868958,120.204773,166.287125,133.297684,163.365326,146.197906
329,0,,,,304.381866,80.686089,120.755867,279.999939,120.375961,166.192474,133.389359,163.357300,146.192444
330,0,,,,304.384613,80.758400,120.894829,280.024017,120.570656,166.281830,133.348633,163.366547,146.319168
331,0,,,,304.333252,80.835922,121.222122,279.994446,120.741753,166.549438,133.331238,163.347198,146.359070
332,0,,,,304.345917,80.921967,121.669380,279.904144,120.930984,166.809616,133.239639,163.397995,146.447571
333,0,,,,304.322754,81.011879,122.112000,279.804657,121.178398,167.128296,133.133469,163.451080,146.507385
334,0,,,,304.285583,81.249756,122.473999,279.680328,121.402962,167.429718,133.012512,163.488678,146.554657
335,0,,,,304.269287,81.368080,122.824188,279.577271,121.556915,167.748871,133.147781,163.410645,146.466400
336,0,,,,304.269440,81.555534,123.267853,279.385620,121.643311,168.121246,132.976944,163.396912,146.482162
337,0,,,,304.275452,81.680161,123.848572,279.122894,121.704155,168.576767,132.789322,163.306290,146.497940
338,0,,,,304.240631,81.841599,124.451286,278.776855,121.798592,169.114914,132.610992,163.200317,146.489288
339,0,,,,304.218964,81.981850,125.218750,278.413300,121.907745,169.722519,132.431046,163.083115,146.517899
340,0,,,,304.184845,82.232635,126.158073,277.972015,122.046753,170.468109,132.132889,162.924683,146.612259
341,0,,,,304.233887,82.430885,127.212273,277.540802,122.264069,171.271729,131.885803,162.795807,146.685852
342,0,,,,304.239532,82.622536,128.385956,277.138458,122.449539,172.163345,131.476883,162.677277,146.860184
343,0,,,,304.259064,82.841461,129.532227,276.739136,122.659561,173.009918,131.251328,162.522949,147.027802
344,0,,,,304.328003,83.056465,130.666397,276.341370,122.806976,173.945679,131.079941,162.360031,147.209625
345,0,,,,304.331787,83.313583,131.789719,275.959473,122.941628,174.826508,130.829391,162.218338,147.446411
346,0,,,,304.428741,83.600914,132.975708,275.509216,123.021614,175.781265,130.667679,162.014542,147.671738
347,0,,,,304.528534,83.792030,134.037216,275.085083,123.011871,176.696884,130.482178,161.797562,147.854355
348,0,,,,304.677887,84.035057,135.113647,274.672363,122.995636,177.565491,130.274841,161.666702,148.112335
349,0,,,,304.911469,84.281273,136.130386,274.287109,123.038956,178.389420,130.090942,161.516357,148.306885
350,0,,,,305.040802,84.556488,137.060486,273.945496,123.114159,179.139954,129.893112,161.385803,148.521774
351,0,,,,305.216125,84.908638,137.965103,273.605591,123.209358,179.865845,129.682877,161.300171,148.680771
352,0,,,,305.446136,85.234436,138.874954,273.345673,123.324364,180.526840,129.529785,161.287521,148.856705
353,0,,,,305.698273,85.534019,139.587234,273.159821,123.405609,181.063492,129.621338,161.294601,149.019699
354,0,,,,306.041473,85.735847,140.099167,273.143219,123.310982,181.493317,129.402786,161.396240,149.320724
355,0,,,,306.423462,85.831490,140.479614,273.226318,123.178635,181.844635,129.212387,161.597519,149.667999
356,0,,,,306.920959,85.990105,140.795914,273.333252,122.969437,182.056793,128.896225,161.944550,150.130417
357,0,,,,307.563629,86.119118,141.062607,273.509827,122.757782,182.145691,128.468658,162.318375,150.655426
358,0,,,,308.467255,86.345306,141.345139,273.652618,122.574669,182.091507,128.098190,162.629272,151.164978
359,0,255.832733,92.445961,108.312035,309.441742,86.683769,141.653351,273.795044,122.484169,181.899704,127.804222,162.962143,151.599823
360,0,257.159760,90.558762,107.528725,310.620483,87.186760,142.161911,273.966980,122.572800,181.612045,127.509277,163.310806,152.035660
361,0,260.090424,88.001297,107.781960,311.788025,87.824280,142.886978,273.999359,122.888977,181.256943,127.433670,163.299423,152.114120
362,0,261.628571,85.100433,105.660484,313.172577,88.820396,143.763321,274.096069,123.419250,180.857437,126.958031,163.727982,152.555939
363,0,264.849091,83.595207,105.157944,314.548157,89.840942,145.005493,274.165375,124.165581,180.371552,126.617279,164.207718,152.888565
364,0,268.832306,82.974869,104.596001,315.912872,91.010513,146.324692,274.177734,124.973907,179.766479,126.274422,164.949509,153.387955
365,0,272.877594,81.285110,103.929489,317.223999,92.485649,147.597305,274.308838,125.883835,179.103897,125.874428,165.394501,153.618622
366,0,277.328064,79.167519,102.931770,318.366730,94.141808,148.628357,274.469391,126.739594,178.494370,125.496506,166.381531,154.122574
367,0,281.960205,76.403839,101.881187,319.229309,95.857208,149.292175,274.665985,127.611145,177.943130,125.328842,166.890045,154.277786
368,0,287.859528,73.142967,101.117264,319.771606,97.408951,149.760681,274.831757,128.380020,177.514465,125.022369,167.847626,154.805817
369,0,292.427368,71.414978,99.958000,320.042511,98.583031,150.050735,274.843201,128.920273,177.233719,124.959488,168.221466,154.980453
370,0,296.116150,69.749039,99.753426,320.108185,99.272682,150.102493,274.861633,129.263245,177.033432,124.768555,168.741043,155.363541
371,0,298.765045,68.037621,99.498734,319.969818,99.523659,149.760483,274.943024,129.505478,176.876587,124.499527,169.405563,155.882858
372,0,299.570343,67.297409,98.755722,319.609711,99.408760,149.168701,275.040314,129.703232,176.779388,124.423927,169.515686,156.116760
373,0,300.523376,65.919891,97.882401,319.079346,98.869690,148.714417,275.109161,129.773209,176.701462,124.255272,169.843552,156.502014
374,0,301.877075,64.479752,97.861267,318.578125,98.244125,148.518616,275.129852,129.678375,176.607010,124.157120,170.178467,156.821777
375,0,303.169098,63.630337,98.047279,318.206238,97.917854,148.383713,275.005951,129.482590,176.560242,123.964844,170.484512,157.113739
376,0,304.996490,62.559158,98.494560,317.950623,97.789917,148.456757,274.816833,129.250839,176.611725,123.739433,170.784225,157.385529
377,0,306.689514,61.556564,99.000908,317.664124,97.618256,148.599960,274.627350,129.025452,176.649353,123.570221,171.064575,157.613083
378,0,307.915558,60.477207,99.704277,317.348663,97.313400,148.702698,274.408936,128.765823,176.668900,123.362694,171.311722,157.870316
379,0,308.719177,59.631588,100.182709,316.954712,96.981232,148.684021,274.234192,128.544495,176.763565,123.225388,171.511078,158.088669
380,0,309.373840,59.020096,100.471672,316.528015,96.602325,148.735718,274.051636,128.329086,176.875259,123.104500,171.718994,158.273560
381,0,309.838104,58.525269,100.805733,316.044952,96.211647,148.877609,273.824249,128.105087,177.085724,122.879135,171.859970,158.457138
382,0,310.270844,58.293480,101.027435,315.623016,95.948013,149.079987,273.589844,127.841797,177.390060,122.611679,171.926697,158.660202
383,0,310.805695,58.336288,101.234520,315.271179,95.842873,149.291916,273.302399,127.554405,177.846115,122.553719,171.856400,158.713654
384,0,311.134064,58.547722,101.562035,314.951813,95.883850,149.632629,272.970184,127.319572,178.451340,122.235596,171.705124,158.911026
385,0,311.390472,59.030487,101.733330,314.640381,95.978065,150.116714,272.656281,127.080841,179.213440,121.926346,171.462677,159.122070
386,0,311.175476,59.425877,102.136246,314.328857,96.059387,150.697372,272.366333,126.971512,180.039658,121.665512,171.220276,159.293808
387,0,310.768188,59.717007,102.823418,313.968079,96.035690,151.491501,272.069031,127.097443,181.021393,121.435364,170.942459,159.390747
388,0,310.524384,59.868977,103.822258,313.595184,96.042503,152.605652,271.805511,127.368912,182.055191,121.244431,170.738922,159.419785
389,0,310.396027,59.972267,105.080200,313.259949,96.155991,153.864044,271.536316,127.729324,183.127136,121.087616,170.634018,159.517975
390,0,310.412201,59.997681,106.410507,312.911285,96.175156,155.072464,271.297729,128.065430,184.220474,120.996925,170.695633,159.639374
391,0,310.261688,60.146164,107.557663,312.520630,96.162865,156.224411,271.053436,128.304047,185.260605,120.869614,170.755920,159.869064
392,0,310.203369,60.201580,108.675011,312.214233,96.121277,157.314133,270.827271,128.439331,186.351044,120.729958,170.874802,160.210571
393,0,310.319183,60.362644,109.766960,311.899261,96.115990,158.424530,270.581573,128.448074,187.408264,120.532806,170.927765,160.632721
394,0,310.502838,60.624340,110.828400,311.686096,96.143661,159.463409,270.234924,128.382584,188.631973,120.277313,170.989838,161.140488
395,0,310.521118,60.887348,112.080063,311.362854,96.175293,160.639603,269.873474,128.228958,189.899673,120.098541,170.915329,161.654907
396,0,310.600189,61.076023,113.358734,310.981384,96.121651,162.035217,269.411774,128.214920,191.219650,119.925896,170.828293,162.167191
397,0,310.273529,61.179592,114.744133,310.586639,96.080559,163.525635,269.026245,128.290482,192.668350,119.456749,170.897415,162.723038
398,0,309.686768,61.266296,116.320175,310.108978,96.024521,165.152557,268.591187,128.574203,194.198471,119.270157,170.992279,163.129105
399,0,308.954926,61.328102,118.054268,309.716583,96.108017,166.995682,268.148102,128.885681,195.806168,119.122627,171.179031,163.448944
400,0,308.793732,61.554108,119.862968,309.377319,96.378510,168.811035,267.791962,129.359680,197.416534,118.985039,171.330307,163.771393
401,0,308.590302,61.878529,121.578285,309.124207,96.711777,170.557755,267.404083,129.873535,198.948868,118.844055,171.521545,164.195358
402,0,308.635803,62.276100,123.101715,308.880798,97.055176,172.133484,267.165558,130.249054,200.395905,118.680916,171.766830,164.722855
403,0,308.836121,62.594646,124.330704,308.760559,97.362915,173.473602,266.981750,130.694931,201.663452,118.637749,172.030197,165.166183
404,0,308.913666,63.282864,125.760437,308.759735,97.934174,174.747009,266.918457,131.192795,202.808701,118.589554,172.203598,165.591980
405,0,309.536896,63.816338,127.018990,308.992371,98.587219,175.904861,266.911469,131.780624,203.753845,118.539795,172.493759,165.973969
406,0,310.612854,64.219894,128.046829,309.361237,99.323547,176.846024,267.077209,132.436295,204.505112,118.682182,172.689041,166.207260
407,0,311.353027,64.643196,128.891708,309.743317,100.090828,177.443726,267.474152,133.254333,204.940201,118.933090,172.994568,166.299484
408,0,311.881714,65.192238,129.379837,310.349762,100.789841,177.606827,268.173859,134.147964,204.978882,119.754845,173.377853,166.180038
409,0,312.511627,65.312531,129.222275,311.109802,101.354462,177.148849,269.220947,135.114731,204.439575,120.479988,173.871033,165.943466
410,0,313.282349,65.530434,128.450562,312.200775,101.976944,176.003677,270.592346,136.022034,203.396942,121.321236,174.566925,165.632080
411,0,314.353424,65.786972,126.810654,313.674774,102.799423,174.221115,272.304993,136.918488,201.801300,122.637291,175.171295,165.076797
412,0,315.792755,66.569550,124.529686,315.302582,103.666794,171.771179,274.063385,137.702179,199.851654,123.943130,175.628677,164.374893
413,0,317.392365,67.556946,121.643448,317.070984,104.593773,168.823044,275.965820,138.279373,197.515778,125.314278,176.012299,163.621277
414,0,318.741455,68.953888,118.365715,318.664581,105.502480,165.412369,277.729187,138.786285,194.930527,126.614395,176.278625,162.711151
415,0,320.364868,70.060493,114.567177,320.263763,106.555115,161.823792,279.387695,139.219513,192.205032,127.758949,176.490097,161.711456
416,0,321.337891,71.406898,111.112053,321.463074,107.347939,158.209747,280.760162,139.621063,189.486801,128.723969,176.743515,160.596512
417,0,321.868561,72.251381,107.774529,322.394379,108.129578,155.048843,281.823151,139.984924,186.899567,129.721924,177.009735,159.326279
418,0,321.979309,72.758347,105.010445,322.850647,108.621704,152.074417,282.610229,140.430359,184.495193,129.956528,177.401352,158.201614
419,0,321.941437,72.921913,102.891518,323.079041,108.950485,149.642242,283.162292,140.843018,182.477814,130.278976,177.749969,157.006653
420,0,321.794922,73.035637,101.268463,323.088165,109.126732,147.863510,283.366669,141.125031,180.852249,130.388733,178.039612,155.914978
421,0,321.814270,73.009850,100.159935,323.014679,109.242599,146.635391,283.379761,141.358521,179.671906,130.378983,178.163437,155.022614
422,0,321.606415,72.811768,99.450340,322.899506,109.293579,145.756302,283.378998,141.515472,178.764832,130.293320,178.270294,154.313293
423,0,321.426056,72.601685,98.977821,322.836365,109.230476,145.108643,283.422028,141.636856,178.050003,130.299545,178.326843,153.751129
424,0,321.425415,72.513344,98.585365,322.843231,109.274315,144.589371,283.467529,141.749771,177.490936,130.311264,178.423660,153.447906
425,0,321.482361,72.482613,98.286186,322.840179,109.363037,144.085159,283.627228,141.794052,177.136780,130.417358,178.289001,153.329575
426,0,321.756653,72.611580,97.998817,322.999908,109.421829,143.761688,283.772278,141.786316,176.951019,130.439545,178.241684,153.458405
427,0,322.052063,72.717674,97.924873,323.119232,109.475227,143.610519,283.883209,141.659500,176.975571,130.476929,178.152451,153.732376
428,0,322.251251,72.652695,98.094421,323.169769,109.413231,143.717773,283.861786,141.410217,177.184036,130.475037,178.084686,154.075851
429,0,322.198425,72.433556,98.481544,323.080078,109.181313,144.080063,283.720459,141.153854,177.569077,130.317322,178.049774,154.400635
430,0,321.996704,72.176285,99.019310,322.886505,108.909508,144.707901,283.475372,140.879074,178.100235,130.097992,177.947083,154.690491
431,0,321.519562,71.912872,99.704941,322.637939,108.622383,145.555542,283.150024,140.727524,178.690247,129.844971,177.717224,154.861099
432,0,321.254425,71.709618,100.573296,322.440430,108.466682,146.416000,282.762573,140.683762,179.321365,129.599976,177.452927,155.032257
433,0,321.061493,71.661598,101.261787,322.272614,108.549316,147.142975,282.417572,140.767822,179.800812,129.442810,177.244919,155.048721
434,0,320.957581,71.842804,101.754303,322.238281,108.760025,147.791183,282.161255,140.906342,180.199463,129.252136,177.176987,155.123993
435,0,320.912354,72.181107,101.993431,322.167847,108.979324,148.178314,281.924652,141.028976,180.495895,129.447159,176.853958,155.015778
436,0,320.915466,72.498039,102.118324,322.124329,109.199333,148.487686,281.741150,141.168442,180.704437,129.328201,176.717102,155.053162
437,0,321.107788,72.852371,102.252739,322.089417,109.471375,148.639343,281.562622,141.303360,180.807297,129.199036,176.678085,155.033722
438,0,321.250610,72.975693,102.437347,322.079712,109.688118,148.793671,281.435394,141.452469,180.819244,129.101593,176.734039,154.982834
439,0,321.397766,73.020462,102.695580,321.979309,109.836922,148.945908,281.241882,141.604340,180.858292,129.007477,176.880829,154.863129
440,0,321.476257,73.082870,102.949463,321.820801,109.912155,149.079147,281.036377,141.714630,180.898117,128.833313,177.035950,154.818115
441,0,321.344269,73.162041,103.117165,321.624176,109.999908,149.269958,280.762360,141.786316,180.966949,128.615189,177.124557,154.763641
442,0,321.039673,73.340500,103.321205,321.363068,110.053612,149.533585,280.383850,141.840576,181.212952,128.409821,177.088287,154.731567
443,0,320.721039,73.599373,103.558685,321.124756,110.117996,150.113419,279.920349,141.810822,181.582199,128.101746,176.992996,154.735809
444,0,320.439240,73.946167,104.033646,320.748108,110.146194,150.762772,279.378723,141.795731,182.109818,127.528069,176.870697,154.893967
445,0,320.229004,74.359161,104.694176,320.533966,110.415268,151.728241,278.750031,141.787598,182.836151,127.129646,176.632492,155.019211
446,0,319.924469,74.895294,105.535492,320.186066,110.699104,152.833344,277.995056,141.820877,183.761353,126.658829,176.313995,155.212479
447,0,319.431000,75.385292,106.427002,319.771820,110.922325,154.209824,277.160248,141.764786,184.925095,126.359879,175.966965,155.354691
448,0,318.681854,75.844681,107.731796,319.286133,111.050781,155.897278,276.187622,141.738861,186.264893,125.756439,175.627380,155.673706
449,0,318.067291,76.146515,109.335243,318.653656,111.181496,157.950958,274.982605,141.633102,187.778656,124.882812,175.342422,156.092438
450,0,317.603790,76.489014,111.249382,317.895538,111.191238,160.247971,273.605804,141.264282,189.598831,124.215118,175.042664,156.448654
451,0,316.920166,76.854675,113.160393,317.052368,111.309578,162.876251,272.085815,140.857544,191.631134,123.590988,174.690521,156.857849
452,0,316.358978,77.111679,115.694778,316.194336,111.221642,165.620438,270.548340,140.567963,193.671524,123.077797,174.168549,157.308121
453,0,315.746490,77.079811,118.318169,315.205017,111.052246,168.476013,268.990173,140.106476,195.754196,122.245796,173.717957,157.938614
454,0,315.036530,76.841576,120.867210,314.081146,110.698837,171.417908,267.284943,139.620468,197.904739,121.245949,173.291229,158.527649
455,0,314.516754,76.566193,123.806458,312.844452,110.169365,174.433548,265.702179,139.202744,200.045074,120.601036,172.874100,159.119095
456,0,313.947418,76.296776,126.529976,311.618591,109.705666,177.364410,264.079376,138.802414,202.210388,120.099052,172.502502,159.685455
457,0,313.331848,76.116417,129.237366,310.461121,109.364967,180.158447,262.515289,138.479492,204.305115,119.305191,172.100357,160.256790
458,0,312.486725,75.988380,131.700836,309.278259,109.050819,182.917953,261.038208,138.160324,206.361542,118.335800,171.734344,160.985672
459,0,311.438232,75.891228,133.783859,308.132721,108.738472,185.441544,259.563751,137.903275,208.300705,117.610519,171.427429,161.597244
460,0,310.656830,75.811668,136.098526,307.085876,108.454643,187.842422,258.240356,137.729340,210.102219,117.134575,171.109207,162.216431
461,0,309.914825,75.796143,138.110596,306.096405,108.245773,190.039047,256.974243,137.533813,211.876602,116.540421,170.789658,162.753464
462,0,309.199646,75.804871,139.899948,305.153046,108.015823,192.242523,255.820358,137.303452,213.413101,115.799622,170.512741,163.310135
463,0,308.625000,75.798370,141.818771,304.231171,107.777290,194.340240,254.623291,137.123535,214.916382,115.333260,170.246536,163.724625
464,0,308.293915,75.926338,143.602631,303.404480,107.639069,196.276779,253.549515,136.937683,216.257004,114.899841,169.920135,164.099625
465,0,307.826752,75.993561,145.467560,302.632080,107.547394,198.113663,252.474487,136.840454,217.501007,114.577301,169.553421,164.352112
466,0,307.643433,76.082634,146.938461,301.944977,107.507759,199.808472,251.443619,136.732056,218.538300,114.361610,169.234528,164.531052
467,0,307.251068,76.178825,148.388229,301.287231,107.574928,201.357483,250.499969,136.683060,219.404816,114.148155,168.939499,164.649643
468,0,307.383942,76.274055,149.798965,300.700104,107.696846,202.617325,249.760162,136.697968,220.079102,113.976242,168.695251,164.731506
469,0,307.267700,76.432198,150.697632,300.282288,107.840843,203.540649,249.100952,136.749252,220.575714,113.833427,168.515594,164.723724
470,0,307.007050,76.575974,151.272385,299.963074,108.013382,204.172195,248.656525,136.834137,220.866470,113.770798,168.402069,164.710175
471,0,307.060211,76.639442,151.606735,299.752686,108.109604,204.459290,248.350723,136.886581,220.971985,113.762306,168.392685,164.637573
472,0,307.118469,76.687798,151.643356,299.664703,108.153503,204.464890,248.223358,136.906586,220.895523,113.808716,168.459686,164.549454
473,0,307.322083,76.735443,151.459229,299.667816,108.173279,204.268738,248.218613,136.919479,220.636047,113.844330,168.527435,164.383377
474,0,307.728577,76.885277,151.074356,299.722107,108.193367,203.968796,248.307770,136.924667,220.233902,113.896904,168.561615,164.162872
475,0,308.473450,77.105461,150.692184,299.900635,108.280495,203.570206,248.379089,136.921951,219.667709,113.970398,168.616791,163.918625
476,0,309.387085,77.274521,150.338333,300.116425,108.362206,203.077469,248.509964,136.825821,218.936951,114.046791,168.701599,163.620026
477,0,310.528046,77.426903,149.807419,300.457550,108.500290,202.399765,248.725281,136.700180,218.048767,114.148712,168.779678,163.331528
478,0,312.005402,77.452324,149.380859,300.877716,108.529419,201.653030,249.050415,136.471176,216.910126,114.150169,168.905518,163.079620
479,0,314.445374,77.130341,149.175095,301.465515,108.375107,200.736267,249.676086,136.030930,215.475220,114.026550,169.210999,163.012772
480,0,317.925140,76.561745,149.470337,302.292480,108.143013,199.561020,250.552689,135.462646,213.773956,113.790047,169.685059,163.088074
481,0,322.262970,75.966354,150.464081,303.260132,107.980583,198.252029,251.610992,134.836929,211.755905,113.228851,170.268738,163.288223
482,0,327.086395,75.570717,152.127655,304.320404,108.028252,196.823166,252.759628,134.227905,209.488770,112.800690,170.720810,163.534286
483,0,332.347168,75.950447,154.445419,305.456970,108.391083,195.510498,253.875763,133.697037,207.008636,112.555420,171.060562,163.684067
484,0,337.465271,76.883194,157.217316,306.483765,109.150269,194.315750,254.870117,133.137665,204.347076,112.119881,171.238815,163.903595
485,0,341.968964,78.453590,159.656372,307.372223,110.141647,192.959686,255.794113,132.688492,201.547836,111.778114,171.307510,164.060623
486,0,345.571930,80.430756,161.673981,308.119049,111.131950,191.384476,256.711700,132.293884,198.659012,111.512627,171.321838,164.142014
487,0,348.457764,82.378044,162.410889,308.767395,112.144547,189.397812,257.600983,131.961136,195.865845,111.348953,171.273544,164.209106
488,0,350.655060,84.311371,162.348267,309.311157,112.982719,187.235840,258.319733,131.601532,193.306976,111.171501,171.219009,164.265793
489,0,352.192810,86.033783,161.422256,309.867126,113.797157,184.950684,259.076782,131.233902,190.950287,111.237831,171.133850,164.176514
490,0,353.598389,87.715820,160.429504,310.369202,114.524864,182.768173,259.766571,130.977951,188.830048,111.379669,171.140793,163.981293
491,0,354.864044,89.117188,159.369385,310.912445,115.167381,180.536438,260.566925,130.702087,186.608307,111.703331,171.219864,163.641479
492,0,356.029114,89.985077,158.247803,311.505493,115.652878,178.352005,261.470276,130.554214,184.328354,112.195610,171.375031,163.290695
493,0,357.088837,90.589264,156.902283,312.183685,115.952072,176.078293,262.524780,130.464920,182.016830,112.699287,171.580276,162.820847
494,0,358.091858,91.007133,155.253677,312.874481,116.001907,173.778305,263.678223,130.320908,179.580597,113.708359,171.760727,162.297501
495,0,359.128082,91.309067,153.248016,313.642365,115.929016,171.342499,264.816895,130.060196,177.190369,114.577232,171.784409,161.818756
496,0,360.066406,91.632942,150.962997,314.450867,115.933037,168.769394,265.920685,129.651855,174.793320,115.279510,171.778580,161.341080
497,0,361.040131,92.038994,148.572067,315.279358,115.968643,166.172073,266.988525,129.348267,172.402771,116.283920,171.799606,160.702957
498,0,362.130432,92.544189,146.290085,316.162231,116.123512,163.537582,268.105164,129.172592,170.014694,117.153488,171.838486,160.049500
499,0,363.025024,93.040207,143.720688,316.971832,116.346573,160.917313,269.130615,129.162613,167.573593,117.953011,171.989227,159.379898
500,0,363.911926,93.610573,141.231201,317.802185,116.642868,158.439377,270.093292,129.248566,165.340302,118.744324,172.137604,158.766479
501,0,364.646851,94.146301,138.602737,318.492737,116.864540,156.008087,270.944946,129.245300,163.253174,119.657967,172.197876,158.094757
502,0,365.461243,94.677338,136.407349,319.184906,117.047607,153.826309,271.689392,129.179337,161.416458,120.275009,172.280960,157.482361
503,0,366.121277,95.160835,134.461609,319.834259,117.252808,152.007858,272.374023,129.033218,159.822983,120.646645,172.321701,156.875854
504,0,366.803619,95.408920,133.266846,320.375366,117.386581,150.534515,272.964539,128.947540,158.455994,121.289513,172.427155,156.195190
505,0,367.367645,95.407188,132.441467,320.866394,117.395775,149.383392,273.535736,128.932007,157.271591,121.900169,172.648392,155.544205
506,0,367.892151,95.071091,131.735764,321.400391,117.310913,148.459244,274.164673,128.973236,156.132553,122.830887,172.885101,154.816467
507,0,368.498749,94.656761,131.295410,322.017212,117.069061,147.638214,274.842804,129.036484,155.154694,123.447815,173.144714,154.338516
508,0,369.133148,94.213013,130.720688,322.717621,116.874855,146.762421,275.671967,129.088211,154.173767,123.958382,173.452393,153.964951
509,0,369.848206,93.867699,129.916412,323.485016,116.706833,145.882645,276.533661,129.131760,153.180206,124.786797,173.742020,153.640427
510,0,370.673981,93.750931,129.121460,324.248596,116.654999,144.904037,277.441772,129.153076,152.187683,125.969292,173.794601,153.353531
511,0,371.376404,93.986267,128.107025,324.951752,116.648041,143.946442,278.222198,129.167603,151.293304,126.473549,173.763855,153.410812
512,0,371.844330,94.424248,127.067833,325.436707,116.808098,143.172318,278.726135,129.161209,150.793228,126.798927,173.530258,153.476837
513,0,372.106781,94.976364,126.561180,325.664185,117.042175,142.902252,278.826263,129.034424,150.784470,126.786079,173.144302,153.549667
514,0,372.138306,95.369904,127.122063,325.585449,117.170494,143.428589,278.577789,128.825592,151.289551,126.506645,172.780945,153.571045
515,0,371.981873,95.230263,128.959900,325.214844,117.103096,144.677338,278.163757,128.560623,152.159470,126.348061,172.554520,153.455643
516,0,371.658875,94.491936,131.675583,324.702393,116.714539,146.497253,277.681702,128.407928,153.306427,125.935555,172.495682,153.329773
517,0,371.120422,93.124107,134.595184,324.214844,116.008011,148.583588,277.305420,128.242249,154.446152,125.622627,172.642792,153.235565
518,0,370.698456,91.526085,137.618835,323.763672,115.032036,150.545273,277.070068,128.062195,155.465317,125.506104,172.798660,153.224884
519,0,370.240387,89.830948,139.774780,323.495789,114.031311,152.068542,277.013519,127.755272,156.265350,125.569595,172.908401,153.323135
520,0,370.124634,88.587440,141.257690,323.436615,113.145866,153.021622,277.135468,127.405746,156.734573,125.750244,172.784882,153.540512
521,0,370.221466,87.925507,141.672012,323.557037,112.625534,153.352219,277.352325,127.059372,156.877121,125.941574,172.601028,153.745850
522,0,370.541687,88.019188,141.319916,323.824982,112.527031,153.124771,277.605103,126.854225,156.744263,126.138893,172.281540,153.945358
523,0,370.959015,88.737007,140.412964,324.112671,112.859863,152.496567,277.843140,126.783073,156.350967,126.263054,171.944977,154.064804
524,0,371.351013,89.777161,139.220154,324.338531,113.413269,151.626968,277.978333,126.827675,155.785858,126.213776,171.643097,154.047012
525,0,371.635040,90.938850,137.944305,324.438416,114.063728,150.658081,277.951691,126.936424,155.117294,126.173096,171.384720,153.867645
526,0,371.729553,91.819977,136.819992,324.457184,114.609680,149.740662,277.825623,127.049240,154.465759,126.023918,171.247742,153.609085
527,0,371.600616,92.325531,135.914276,324.259186,114.901932,148.934494,277.672882,127.114517,153.778717,125.900208,171.237823,153.272614
528,0,371.282837,92.344315,135.141571,323.999146,114.972672,148.297577,277.444946,127.146660,153.143463,125.772537,171.276901,152.960190
529,0,370.952637,92.176483,134.498337,323.697327,114.894516,147.721542,277.266418,127.245010,152.628876,125.568611,171.359634,152.663757
530,0,370.615479,92.094208,134.008026,323.414703,114.900787,147.336166,277.068878,127.318863,152.232849,125.214828,171.422180,152.586594
531,0,370.400513,92.323624,133.676102,323.184113,115.102570,147.069916,276.872070,127.510025,151.984207,125.258698,171.426620,152.434494
532,0,370.286377,92.866302,133.503159,323.025421,115.531265,146.997192,276.667633,127.792847,151.908615,124.817581,171.405746,152.501526
533,0,370.235901,93.789047,133.517426,322.843445,116.119431,147.126419,276.417664,128.183395,152.056381,124.545639,171.343170,152.530365
534,0,370.209839,94.837563,133.845444,322.683838,116.870415,147.435562,276.161163,128.625687,152.368668,124.149605,171.263977,152.598984
535,0,370.206177,96.093422,134.406570,322.504913,117.677803,148.011307,275.873993,129.029755,152.812607,123.715424,171.169968,152.655319
536,0,370.172668,97.276878,135.110229,322.248169,118.410629,148.700409,275.543274,129.372238,153.295578,123.402161,171.080215,152.741562
537,0,370.057190,98.152855,135.818237,321.957855,119.064865,149.440872,275.111206,129.610382,153.814926,123.371246,171.156372,152.773575
538,0,369.860504,98.889473,136.402603,321.616516,119.456985,150.016495,274.685425,129.748108,154.255814,122.832397,171.181732,152.906601
539,0,369.525360,99.168945,136.799515,321.280396,119.711533,150.507538,274.289062,129.820312,154.660965,122.834000,171.327698,152.938766
540,0,369.238190,99.229118,137.172287,320.956512,119.812828,150.900696,273.937225,129.923447,155.022385,122.655716,171.509460,152.979507
541,0,368.882324,99.157722,137.499176,320.629150,119.829430,151.230484,273.620483,130.148315,155.261047,122.510605,171.694336,153.010330
542,0,368.566559,99.246460,137.628448,320.334045,119.964890,151.447327,273.294800,130.464371,155.445648,122.262222,171.802643,152.981949
543,0,368.330383,99.561668,137.653259,320.101807,120.181480,151.612335,273.024567,130.719452,155.671295,121.848206,171.805893,152.940643
544,0,368.159454,100.071739,137.641144,319.891541,120.529213,151.821655,272.664032,130.922394,155.926987,121.574173,171.723099,152.852631
545,0,367.986511,100.743774,137.696686,319.703308,120.908485,152.132233,272.304138,131.025223,156.265579,121.327179,171.566650,152.736343
546,0,367.832611,101.505478,137.826584,319.463928,121.427498,152.604523,271.833191,131.115250,156.728928,121.085785,171.419250,152.556503
547,0,367.666199,102.278717,138.079620,319.257080,122.018326,153.212173,271.350281,131.333084,157.228531,120.808380,171.306274,152.385712
548,0,367.518860,103.059052,138.395950,318.984467,122.646797,153.976761,270.894867,131.610352,157.771912,120.580246,171.261902,152.155563
549,0,367.369781,103.870964,138.897491,318.687469,123.333420,154.793198,270.441193,131.967133,158.416779,120.513725,171.297852,151.960266
550,0,367.196442,104.654259,139.511597,318.369507,124.002930,155.603439,270.040527,132.324493,159.022842,120.286148,171.440277,151.853088
551,0,367.034973,105.363434,140.150650,318.131653,124.619530,156.324158,269.648163,132.661484,159.556671,120.055344,171.623062,151.853607
552,0,366.823334,105.955284,140.745575,317.844269,125.112907,157.037338,269.285004,132.961975,160.062836,119.831543,171.715042,151.928085
553,0,366.591309,106.417259,141.286285,317.494019,125.426216,157.664581,268.989075,133.121429,160.571579,119.644905,171.747009,152.029419
554,0,366.382812,106.645340,141.858444,317.222748,125.581429,158.207855,268.704285,133.120163,161.065887,119.262321,171.785004,152.264252
555,0,366.140137,106.675644,142.460556,316.932343,125.599472,158.730042,268.387451,133.039444,161.496643,119.088089,171.805862,152.485519
556,0,365.841400,106.452690,142.987030,316.660034,125.449242,159.192169,268.127869,132.941010,161.880981,118.933960,171.815353,152.649689
557,0,365.542084,106.118324,143.503922,316.388428,125.230698,159.636215,267.835358,132.899063,162.184692,118.828514,171.774445,152.690216
558,0,365.234711,105.735016,143.968033,316.064148,124.987419,160.028549,267.511932,132.840210,162.452072,118.631653,171.776917,152.784424
559,0,364.893921,105.417702,144.366241,315.757385,124.748665,160.366501,267.215271,132.810181,162.674194,118.452278,171.695145,152.807861
560,0,364.608643,105.189682,144.685822,315.468750,124.581253,160.674103,266.914032,132.709381,162.869995,118.389671,171.583023,152.776001
561,0,364.278870,105.033562,144.939270,315.184326,124.483353,160.918976,266.640564,132.591431,162.980164,118.248169,171.497665,152.747467
562,0,364.049866,104.983009,144.957642,314.928131,124.450432,161.026215,266.340790,132.516724,162.994232,118.096855,171.417496,152.680710
563,0,363.859955,104.943207,144.793106,314.712616,124.444649,160.996536,266.128937,132.470047,162.908279,117.910034,171.324219,152.618149
564,0,363.691071,104.925400,144.399277,314.526245,124.430946,160.876282,265.968109,132.408798,162.804138,117.755211,171.280045,152.596970
565,0,363.535126,104.927574,143.962997,314.386597,124.451523,160.691010,265.798828,132.309464,162.621384,117.745949,171.112946,152.533920
566,0,363.424438,104.973755,143.451736,314.278259,124.471375,160.507736,265.700531,132.187805,162.429840,117.592575,171.031677,152.512100
567,0,363.356140,104.991272,142.980850,314.224518,124.416771,160.328232,265.600311,132.088943,162.226105,117.518066,170.901749,152.423309
568,0,363.262970,105.002823,142.471603,314.120941,124.385910,160.123535,265.528046,131.947739,162.052307,117.472328,170.780090,152.376205
569,0,363.155670,104.946747,141.917343,314.028961,124.291237,159.934021,265.432831,131.755081,161.898895,117.457382,170.609512,152.318619
570,0,363.048279,104.871590,141.422501,313.954132,124.122208,159.767593,265.274323,131.501968,161.789185,117.390526,170.441406,152.270187
571,0,362.897888,104.735703,140.957901,313.837952,123.947609,159.630249,265.142548,131.221512,161.710266,117.327316,170.288528,152.207245
572,0,362.738068,104.482208,140.539520,313.740479,123.753044,159.550446,264.972626,130.939651,161.677505,117.297165,170.187180,152.175217
573,0,362.590240,104.157944,140.199936,313.630341,123.534363,159.500320,264.835632,130.808716,161.634033,117.267723,170.127274,152.118637
574,0,362.443634,103.794930,139.880264,313.570740,123.356186,159.483627,264.733398,130.745514,161.587219,117.235878,170.096375,152.018692
575,0,362.267487,103.561661,139.578262,313.496948,123.265785,159.463440,264.631989,130.806747,161.541565,117.210457,170.033813,151.909363
576,0,362.109222,103.454498,139.273163,313.414856,123.236954,159.475159,264.542480,130.852356,161.560471,117.141373,169.983551,151.878540
577,0,361.924622,103.413330,138.753830,313.312012,123.283859,159.445724,264.431213,130.925186,161.572433,117.088593,169.981308,151.851974
578,0,361.845032,103.552528,138.409195,313.267090,123.366577,159.400925,264.320862,130.996246,161.561996,117.031967,169.807922,151.721756
579,0,361.679260,103.721359,137.896255,313.170776,123.454842,159.310242,264.182037,130.967026,161.618668,116.914795,169.732025,151.650955
580,0,361.513000,103.826729,137.348907,313.113403,123.530830,159.229599,263.984924,130.941650,161.654404,116.799347,169.651886,151.589813
581,0,361.319672,103.796440,136.761826,313.056122,123.549835,159.138794,263.816437,130.905014,161.752029,116.694160,169.614639,151.468201
582,0,361.061707,103.612732,136.172241,312.988708,123.495102,159.091888,263.631622,130.882584,161.874298,116.593422,169.650192,151.305649
583,0,360.693726,103.241844,135.516464,312.913727,123.356895,159.032318,263.479584,130.889832,162.020340,116.512894,169.670502,151.175446
584,0,360.332123,102.773170,135.015961,312.800598,123.159401,159.067764,263.241913,130.900925,162.232285,116.529564,169.711227,151.059067
585,0,359.936707,102.253479,134.577713,312.674530,122.914497,159.117035,263.003021,130.899368,162.459305,116.821144,169.799088,150.880051
586,0,359.512695,101.768585,134.320572,312.487579,122.668762,159.205505,262.766388,130.920868,162.639114,116.718346,169.852890,150.707657
587,0,359.092102,101.286812,134.090652,312.315491,122.429436,159.344025,262.517334,130.990662,162.851166,116.688736,169.859650,150.616821
588,0,358.763916,100.840836,133.876404,312.145874,122.227676,159.469925,262.325806,131.034348,163.026138,116.600014,169.896286,150.516785
589,0,358.442078,100.521332,133.659485,312.014893,122.061600,159.579147,262.138519,131.065460,163.144791,116.511063,169.920319,150.504669
590,0,358.192017,100.292465,133.403900,311.920593,121.906113,159.630219,262.071686,131.057602,163.242493,116.531677,169.891571,150.486481
591,0,358.003265,100.135902,133.025360,311.880005,121.774124,159.594238,261.969269,131.004822,163.325119,116.475540,169.858612,150.528503
592,0,357.853394,100.002060,132.598953,311.839508,121.642845,159.527435,261.916473,130.871140,163.359787,116.495323,169.751266,150.532303
593,0,357.634766,99.823387,131.982193,311.813110,121.499763,159.349747,261.850220,130.689392,163.319290,116.475006,169.691986,150.552216
594,0,357.510254,99.559151,131.540268,311.801086,121.306206,159.152328,261.742279,130.527847,163.288651,116.488754,169.605499,150.504730
595,0,357.296021,99.225403,130.924423,311.784058,121.119438,158.875870,261.742462,130.376434,163.142075,116.497559,169.553604,150.422287
596,0,357.055389,98.864510,130.277954,311.800720,120.879471,158.540451,261.696930,130.342926,163.033844,116.545586,169.555069,150.261551
597,0,356.828918,98.441978,129.658691,311.856049,120.657074,158.242310,261.707611,130.336655,162.882111,116.626060,169.558655,150.106750
598,0,356.628082,98.068077,129.030563,311.904236,120.434776,157.894745,261.746307,130.400742,162.704453,116.687447,169.581573,149.948181
599,0,356.448608,97.798363,128.374649,311.982574,120.276512,157.534912,261.810181,130.456772,162.525848,116.739296,169.591003,149.799438
600,0,356.296143,97.608238,127.705421,312.009766,120.211197,157.184433,261.837769,130.503616,162.324661,116.811684,169.575211,149.681198
601,0,356.168732,97.555389,127.003563,312.114441,120.162086,156.835938,261.859222,130.502136,162.140381,116.874825,169.535187,149.597290
602,0,356.030334,97.589073,126.368179,312.135223,120.144653,156.508698,261.883057,130.423538,161.983810,116.876625,169.479767,149.562836
603,0,355.990662,97.665077,125.822693,312.166809,120.152748,156.200668,261.872650,130.323502,161.841919,116.845734,169.439178,149.562790
604,0,355.890991,97.680786,125.340073,312.209106,120.107681,155.901733,261.827454,130.216080,161.732056,116.816917,169.413177,149.570923
605,0,355.782166,97.650139,124.868248,312.184326,120.069069,155.651031,261.829193,130.153412,161.640884,116.776840,169.434830,149.546844
606,0,355.672974,97.543602,124.508263,312.163696,120.014992,155.414917,261.785187,130.099350,161.557693,116.718292,169.376114,149.525131
607,0,355.442322,97.380585,124.107178,312.157135,119.912109,155.244003,261.741150,130.143188,161.554993,116.689659,169.431625,149.504654
608,0,355.234497,97.223602,123.759903,312.123566,119.837830,155.122742,261.674408,130.175201,161.590622,116.673424,169.422043,149.505035
609,0,354.955017,97.103264,123.462692,312.068390,119.788055,155.005234,261.592804,130.224686,161.607269,116.592514,169.419876,149.416245
610,0,354.750061,96.999718,123.192032,311.997040,119.740318,154.954468,261.497498,130.248398,161.624969,116.505013,169.413574,149.398895
611,0,354.580719,96.953651,122.978210,311.907898,119.689674,154.898514,261.395020,130.232178,161.659454,116.417633,169.386093,149.361679
612,0,354.457489,96.929939,122.859917,311.802673,119.639656,154.931732,261.256744,130.132614,161.696991,116.161339,169.363327,149.392822
613,0,354.314514,96.874779,122.824181,311.685577,119.563393,154.963623,261.132874,130.065094,161.730820,116.053505,169.333023,149.390076
614,0,354.219910,96.804665,122.846764,311.588867,119.479210,155.002228,261.024658,129.946533,161.763535,115.975395,169.313477,149.342346
615,0,354.092651,96.692673,122.918594,311.462341,119.411842,155.060928,260.904724,129.905746,161.758743,115.927650,169.264099,149.252502
616,0,353.973206,96.621223,123.014565,311.335358,119.371529,155.117599,260.779785,129.892227,161.754150,116.006592,169.261826,149.154800
617,0,353.869202,96.588486,123.138237,311.239410,119.394615,155.193741,260.712433,129.938492,161.793900,115.891769,169.312576,149.123840
618,0,353.804169,96.622917,123.280258,311.162048,119.446754,155.285477,260.602020,130.028122,161.837006,115.839676,169.332901,149.054779
619,0,353.792297,96.724129,123.406609,311.090118,119.550369,155.351990,260.571320,130.108475,161.863419,115.767830,169.338120,149.068359
620,0,353.798645,96.917290,123.534088,311.082397,119.658012,155.434982,260.541565,130.199402,161.920212,115.588135,169.363312,149.124115
621,0,353.890198,97.077675,123.655281,311.099701,119.823120,155.475327,260.524841,130.294998,161.949844,115.522133,169.369186,149.117920
622,0,353.949036,97.299599,123.728539,311.091156,119.961990,155.529373,260.555450,130.390060,161.973648,115.709442,169.352478,149.064423
623,0,353.985443,97.485397,123.711205,311.123260,120.097878,155.527664,260.569672,130.496033,162.006302,115.560730,169.361267,149.125717
624,0,353.980530,97.630241,123.680191,311.143005,120.211563,155.571487,260.569702,130.550888,162.048019,115.550240,169.383881,149.111435
625,0,354.030701,97.724945,123.721710,311.174744,120.286339,155.580414,260.596985,130.604538,162.057480,115.556625,169.415390,149.072876
626,0,354.024841,97.770409,123.734055,311.184479,120.336815,155.623627,260.609497,130.654541,162.076920,115.564018,169.477142,149.089127
627,0,354.107513,97.730568,123.833694,311.220581,120.365311,155.622345,260.655060,130.726089,162.049591,115.771011,169.514648,149.002899
628,0,354.141876,97.718033,123.937462,311.286285,120.376915,155.667297,260.699493,130.794922,162.045898,115.813881,169.595230,148.950165
629,0,354.221680,97.753319,124.018089,311.320435,120.407806,155.708527,260.756500,130.856171,162.056442,115.867058,169.638580,148.872070
630,0,354.303986,97.798103,124.129982,311.322296,120.459885,155.736603,260.798950,130.867554,162.088089,115.908653,169.705856,148.867081
631,0,354.326355,97.887032,124.247505,311.329590,120.518318,155.797440,260.799011,130.887604,162.117416,115.898537,169.771454,148.886276
632,0,354.365753,97.930038,124.322113,311.329498,120.581497,155.873947,260.792633,130.948929,162.131653,115.899643,169.779556,148.842392
633,0,354.372559,98.008194,124.441322,311.315338,120.670403,155.935867,260.795227,130.999863,162.166412,115.914719,169.811096,148.817017
634,0,354.396667,98.049026,124.537010,311.314087,120.760231,155.992584,260.756348,131.104050,162.209305,115.708969,169.864273,148.872314
635,0,354.402832,98.142075,124.647621,311.298370,120.854469,156.054245,260.798096,131.203918,162.260925,115.832916,169.924454,148.849045
636,0,354.417328,98.245827,124.656654,311.348663,121.005653,156.091766,260.807739,131.351151,162.293808,115.632294,169.985931,148.898819
637,0,354.459473,98.373543,124.656059,311.392548,121.124825,156.104675,260.839294,131.444916,162.307938,115.847404,170.017410,148.823532
638,0,354.559296,98.491035,124.621407,311.472260,121.247559,156.058426,260.913727,131.535614,162.295807,115.899712,170.076294,148.799576
639,0,354.593231,98.603516,124.519676,311.538635,121.319969,156.003021,260.949554,131.618530,162.253387,115.923149,170.097473,148.795959
640,0,354.677490,98.711861,124.419418,311.589752,121.424637,155.905945,261.014954,131.675003,162.178238,115.964325,170.142426,148.763840
641,0,354.762054,98.796219,124.288399,311.665039,121.476135,155.775726,261.095764,131.734741,162.092499,116.030319,170.136978,148.738724
642,0,354.807312,98.875114,124.176437,311.746552,121.556870,155.671127,261.158997,131.776566,162.000732,116.054169,170.171570,148.734085
643,0,354.840363,98.983704,124.048004,311.784576,121.597946,155.524643,261.198822,131.808853,161.884064,116.062523,170.188156,148.695801
644,0,354.870941,99.037315,123.932152,311.847870,121.690063,155.398865,261.262909,131.841995,161.773911,116.052910,170.329163,148.693100
645,0,354.917725,99.089348,123.832146,311.869934,121.714592,155.263824,261.293121,131.889053,161.627045,116.058609,170.347839,148.624649
646,0,354.983643,99.075851,123.760597,311.933655,121.744415,155.169373,261.374847,131.906906,161.538696,116.127716,170.320312,148.611038
647,0,355.057190,99.105698,123.665054,311.984222,121.775932,155.079941,261.441040,131.941895,161.442825,116.189095,170.367645,148.592056
648,0,355.058655,99.068161,123.576874,312.002075,121.802132,154.994705,261.470367,131.979385,161.421585,116.206284,170.317963,148.509140
649,0,355.054688,99.074554,123.512978,312.068878,121.820869,154.953812,261.533417,132.019089,161.374832,116.247490,170.364761,148.493759
650,0,355.075409,99.045891,123.477089,312.104523,121.808746,154.945786,261.541168,132.038864,161.374222,116.265068,170.383163,148.487686
651,0,355.065216,99.026527,123.484406,312.105865,121.801994,154.949585,261.528687,132.053864,161.394165,116.267487,170.410889,148.469299
652,0,355.052124,99.005516,123.557907,312.059052,121.801781,155.039917,261.514801,132.040466,161.458008,116.274162,170.454437,148.414307
653,0,355.004333,98.999008,123.657059,312.041809,121.779984,155.145721,261.459381,132.030258,161.541702,116.246941,170.451920,148.441788
654,0,354.955963,98.953766,123.776382,311.992310,121.722366,155.238007,261.432739,132.011780,161.598770,116.224274,170.443375,148.423721
655,0,354.958710,98.929153,123.896805,311.943115,121.675690,155.368057,261.368378,131.972137,161.670486,116.216499,170.437454,148.434006
656,0,354.918823,98.868706,124.068161,311.882202,121.645554,155.472809,261.337250,131.929031,161.782181,116.166000,170.592072,148.518494
657,0,354.860809,98.805244,124.236473,311.797729,121.577507,155.651215,261.230652,131.870438,161.895401,116.105843,170.568405,148.585266
658,0,354.793457,98.776070,124.438385,311.710663,121.497314,155.842224,261.148407,131.823181,162.038300,116.061371,170.479294,148.568542
659,0,354.747192,98.722794,124.641640,311.642273,121.464844,155.983246,261.057159,131.760620,162.134552,116.011742,170.468994,148.527512
660,0,354.645142,98.579735,124.721886,311.546692,121.451149,156.184433,260.979156,131.743881,162.253830,115.969620,170.458405,148.566864
661,0,354.669647,98.668953,125.077057,311.470306,121.433212,156.350250,260.929657,131.755325,162.396896,115.928391,170.477158,148.627991
662,0,354.648132,98.656303,125.266907,311.434174,121.447540,156.486588,260.875488,131.768204,162.481430,115.898354,170.446014,148.590729
663,0,354.656281,98.687431,125.357147,311.390106,121.456261,156.585220,260.840179,131.757233,162.560791,115.684067,170.445847,148.653992
664,0,354.669189,98.695625,125.398369,311.366882,121.443085,156.633362,260.803192,131.753677,162.589859,115.662743,170.439270,148.651978
665,0,354.609833,98.734894,125.363930,311.365967,121.436462,156.617828,260.796295,131.723190,162.598389,115.779778,170.412064,148.597656
666,0,354.604828,98.708672,125.270424,311.403259,121.407570,156.559967,260.815277,131.661118,162.600845,115.583282,170.405975,148.664322
667,0,354.518402,98.583328,124.962601,311.428284,121.360054,156.454239,260.844482,131.625931,162.533752,115.587219,170.400879,148.647110
668,0,354.606842,98.643570,124.850899,311.476135,121.311295,156.292175,260.889435,131.572739,162.462738,115.621605,170.389282,148.661423
669,0,354.611847,98.629845,124.599556,311.514130,121.268738,156.134033,260.945679,131.525253,162.366852,115.662193,170.340164,148.638550
670,0,354.539825,98.582558,124.371017,311.571533,121.185738,155.978836,260.989777,131.465805,162.326492,115.695801,170.335892,148.607346
671,0,354.557617,98.495422,124.220222,311.617218,121.117317,155.882431,261.013611,131.406082,162.267700,115.693039,170.343674,148.592697
672,0,354.547821,98.393700,124.055107,311.631073,121.054527,155.801682,261.024017,131.358841,162.209869,115.675987,170.367950,148.605774
673,0,354.514130,98.323608,123.952179,311.616180,120.947563,155.756882,261.020691,131.302643,162.221573,115.831192,170.302429,148.585495
674,0,354.471619,98.268684,123.909363,311.608673,120.897270,155.729446,260.986633,131.238602,162.231003,115.764389,170.408356,148.612061
675,0,354.420502,98.203064,123.898277,311.582367,120.828835,155.712372,260.983124,131.215225,162.236603,115.774406,170.266678,148.527496
676,0,354.435181,98.145302,123.888985,311.557007,120.776329,155.724472,260.937897,131.118591,162.255524,115.740242,170.260864,148.517181
677,0,354.358337,98.081657,123.938728,311.537109,120.704430,155.783325,260.930084,131.083252,162.318665,115.576302,170.261353,148.558472
678,0,354.326630,97.994530,124.029411,311.471375,120.614197,155.850800,260.900452,131.032761,162.377808,115.583252,170.248352,148.595322
679,0,354.252533,97.952629,124.061058,311.434509,120.573631,155.916092,260.831726,130.979828,162.422928,115.491264,170.196106,148.609344
680,0,354.174286,97.882957,124.070427,311.383209,120.537033,155.916656,260.785431,130.964066,162.475220,115.437080,170.200729,148.618469
681,0,354.135742,97.861382,124.064888,311.345520,120.487793,155.969559,260.728210,130.923111,162.521744,115.386734,170.150345,148.647736
682,0,354.051392,97.816597,124.023308,311.304108,120.459068,155.912506,260.702118,130.902954,162.535995,115.345276,170.149612,148.676483
683,0,354.013031,97.795883,123.919373,311.287750,120.448158,155.885361,260.678833,130.916107,162.550537,115.276649,170.165115,148.688385
684,0,353.898895,97.779884,123.728210,311.288483,120.449059,155.803177,260.669281,130.951874,162.540390,115.293381,170.152969,148.675827
685,0,353.890717,97.801788,123.670761,311.312225,120.493301,155.712158,260.624237,131.021683,162.495895,115.246498,170.154404,148.674759
686,0,353.831543,97.861519,123.560684,311.288788,120.544548,155.631012,260.637268,131.079361,162.470993,115.185951,170.183701,148.666595
687,0,353.834686,97.916862,123.414162,311.294342,120.598717,155.549362,260.641693,131.128418,162.418686,115.104774,170.143295,148.669083
688,0,353.802826,98.047516,123.284302,311.261902,120.681671,155.467453,260.631073,131.137085,162.383789,115.026001,170.090851,148.696777
689,0,353.798340,98.127281,123.142746,311.274841,120.714760,155.394226,260.626648,131.133621,162.365021,114.960716,170.055222,148.707642
690,0,353.770782,98.150841,123.025757,311.289734,120.694412,155.310501,260.614746,131.114502,162.346115,114.970001,170.024277,148.709625
691,0,353.726410,98.149452,122.953896,311.246338,120.672684,155.265015,260.600433,131.063858,162.342407,114.931297,169.974380,148.724915
692,0,353.723511,98.049881,122.917435,311.274658,120.588089,155.252625,260.608276,130.989609,162.346680,114.938454,169.946579,148.728577
693,0,353.722870,97.954605,122.930611,311.279175,120.504539,155.248459,260.610168,130.930908,162.381210,114.922867,169.898163,148.729935
694,0,353.697449,97.861389,122.937996,311.271759,120.435966,155.254440,260.610535,130.883820,162.364624,114.864784,169.888336,148.680954
695,0,353.704071,97.801590,122.948044,311.263214,120.372284,155.288147,260.603760,130.788986,162.375443,114.907486,169.842834,148.644440
696,0,353.748077,97.720856,122.991035,311.279236,120.328827,155.302383,260.621826,130.756516,162.414795,114.847137,169.819763,148.660538
697,0,353.775208,97.687782,123.008476,311.309418,120.280983,155.327881,260.641144,130.710754,162.423340,114.866074,169.702881,148.665039
698,0,353.786804,97.655548,123.069580,311.310211,120.250946,155.347855,260.649750,130.675217,162.440903,114.838875,169.668304,148.680435
699,0,353.842743,97.653793,123.143349,311.314606,120.230042,155.393799,260.705139,130.656509,162.482620,114.887634,169.629929,148.645523
700,0,353.820862,97.628319,123.235916,311.311432,120.223076,155.465530,260.668701,130.649033,162.521713,114.847961,169.594696,148.652161
701,0,353.800903,97.623734,123.340683,311.310028,120.259834,155.530685,260.666199,130.674881,162.569473,114.888184,169.571167,148.678787
702,0,353.844849,97.661179,123.441025,311.306549,120.287483,155.577698,260.673248,130.707184,162.585312,114.891983,169.568375,148.699478
703,0,353.819061,97.714920,123.489197,311.272400,120.337471,155.609283,260.642639,130.774902,162.617783,114.841805,169.599472,148.664948
704,0,353.778046,97.763535,123.518959,311.253967,120.412086,155.611252,260.617035,130.824326,162.623993,114.873238,169.622437,148.651520
705,0,353.801331,97.864563,123.514496,311.248322,120.494423,155.615677,260.618622,130.906250,162.619278,114.828972,169.660812,148.723938
706,0,353.763733,97.953484,123.499451,311.224518,120.591942,155.621613,260.575012,130.937866,162.631042,114.792694,169.679047,148.696121
707,0,353.748535,98.033150,123.490860,311.188263,120.666534,155.576935,260.528107,131.020859,162.605515,114.801994,169.752136,148.684219
708,0,353.695251,98.074638,123.471184,311.167114,120.745766,155.546631,260.488495,131.111008,162.588257,114.805267,169.794754,148.692429
709,0,353.667023,98.163620,123.467613,311.126373,120.831841,155.529724,260.478424,131.172714,162.550110,114.765381,169.885910,148.689987
710,0,353.682831,98.204422,123.482430,311.080658,120.918098,155.489395,260.443237,131.269897,162.512863,114.773438,169.947983,148.677429
711,0,353.641388,98.290115,123.435600,311.037872,120.988724,155.459625,260.411377,131.363861,162.491623,114.759918,170.123123,148.665344
712,0,353.595337,98.328278,123.412918,311.025452,121.066971,155.421219,260.414154,131.469467,162.424896,114.788513,170.154114,148.610352
713,0,353.604156,98.342339,123.409348,311.023499,121.132553,155.399689,260.393494,131.597931,162.405731,114.791199,170.215118,148.547119
714,0,353.569366,98.397354,123.442734,311.000458,121.205795,155.403366,260.382355,131.657608,162.399780,114.778236,170.247208,148.509476
715,0,353.565033,98.456268,123.468903,310.975494,121.290642,155.403732,260.347321,131.749207,162.397354,114.758560,170.295319,148.487350
716,0,353.552063,98.478340,123.489281,310.963470,121.337074,155.420135,260.357086,131.808090,162.394363,114.756042,170.307251,148.434052
717,0,353.544281,98.492691,123.541695,310.944427,121.365875,155.443527,260.330353,131.841293,162.408768,114.699463,170.389084,148.472717
718,0,353.506256,98.521393,123.573990,310.948608,121.445557,155.470413,260.306580,131.885620,162.431107,114.712822,170.382294,148.481567
719,0,353.527954,98.523834,123.611763,310.959229,121.454750,155.479202,260.326721,131.911026,162.464523,114.659439,170.368607,148.496536
720,0,353.467438,98.545769,123.474243,310.948425,121.507820,155.499359,260.330719,131.914154,162.480652,114.638603,170.344849,148.522995
721,0,353.550751,98.627258,123.613647,310.962738,121.491272,155.528076,260.342987,131.873962,162.501328,114.625168,170.288040,148.548019
722,0,353.577942,98.678650,123.672836,310.944183,121.497749,155.563416,260.306458,131.827820,162.514923,114.644791,170.237869,148.511551
723,0,353.568909,98.629509,123.666260,310.948364,121.444946,155.582474,260.295776,131.772858,162.511887,114.638725,170.178467,148.544174
724,0,353.468994,98.489082,123.567101,310.966980,121.352493,155.604858,260.292725,131.699265,162.538452,114.626724,170.152206,148.536377
725,0,353.456726,98.374413,123.535606,310.940125,121.276726,155.564529,260.311371,131.654541,162.526688,114.614456,170.115677,148.586609
726,0,353.519714,98.340141,123.546997,310.995636,121.187019,155.510178,260.316162,131.605225,162.511230,114.622734,170.150009,148.587341
727,0,353.517761,98.245834,123.435600,310.995575,121.154228,155.419662,260.381927,131.557312,162.445618,114.624245,170.063721,148.611649
728,0,353.536499,98.226318,123.322899,311.023590,121.110909,155.306656,260.389435,131.475250,162.352493,114.618469,170.056747,148.590088
729,0,353.524719,98.195602,123.178566,311.052917,121.039551,155.222229,260.406281,131.434586,162.298431,114.610596,169.906647,148.530457
730,0,353.563843,98.182037,123.083603,311.057007,120.991333,155.153305,260.427185,131.343124,162.245377,114.611816,169.838898,148.505096
731,0,353.561890,98.117386,122.994385,311.086090,120.903381,155.066284,260.433960,131.233414,162.208618,114.658852,169.777603,148.511978
732,0,353.592682,98.070877,122.921074,311.098175,120.809639,155.034210,260.446381,131.175583,162.182800,114.619095,169.752487,148.502716
733,0,353.580841,98.000084,122.874855,311.085388,120.753082,155.025284,260.456451,131.097946,162.174911,114.610054,169.717010,148.548447
734,0,353.529755,97.909752,122.811455,311.090118,120.716728,155.002487,260.468842,131.058914,162.173935,114.637352,169.701202,148.547180
735,0,353.530640,97.855019,122.767014,311.105835,120.696579,154.956787,260.489014,131.076599,162.162338,114.634209,169.721542,148.526688
736,0,353.530701,97.825691,122.709740,311.096527,120.700249,154.901047,260.469421,131.108093,162.141785,114.625031,169.767105,148.522339
737,0,353.508484,97.867218,122.631950,311.132263,120.743553,154.849579,260.491058,131.154694,162.132782,114.649620,169.780045,148.522507
738,0,353.477600,97.917076,122.473152,311.150848,120.787766,154.822937,260.504211,131.199219,162.121170,114.667366,169.802521,148.485443
739,0,353.446625,98.004448,122.309700,311.185333,120.815727,154.718338,260.522400,131.232895,162.103256,114.649765,169.803909,148.459335
740,0,353.426331,98.042244,122.090378,311.225555,120.854118,154.585037,260.533051,131.279144,162.065414,114.679451,169.823532,148.456909
741,0,353.364288,98.097672,121.804779,311.284180,120.906334,154.460678,260.578766,131.327225,162.029190,114.649734,169.878983,148.493454
742,0,353.349976,98.133911,121.479698,311.329529,120.957268,154.284515,260.626190,131.363861,161.988510,114.629684,169.854019,148.531326
743,0,353.226471,98.193298,120.996346,311.426758,120.992584,154.028259,260.711884,131.416870,161.888214,114.636116,169.935440,148.483887
744,0,353.138977,98.195732,120.409309,311.525146,121.011932,153.714386,260.778564,131.480225,161.832413,114.606682,169.951309,148.475693
745,0,352.970306,98.197319,119.708328,311.627289,120.992569,153.336700,260.862823,131.517838,161.784958,114.599434,169.982178,148.504227
746,0,352.707245,98.154518,118.772530,311.776855,120.991776,152.887329,260.935455,131.577759,161.765060,114.608055,170.032639,148.551697
747,0,352.428833,98.152527,117.749535,311.900726,120.945724,152.351379,261.030731,131.626556,161.763916,114.649841,170.032318,148.530853
748,0,352.055695,98.102692,116.438423,312.032715,120.913651,151.692230,261.104858,131.686935,161.708481,114.629776,170.111725,148.529892
749,0,351.493683,97.998619,114.863693,312.206543,120.867363,150.919342,261.214630,131.754913,161.685654,114.510727,170.142456,148.607437
750,0,350.965210,97.860817,113.232674,312.421722,120.743813,150.024841,261.367706,131.805664,161.626389,114.575554,170.142181,148.637833
751,0,350.324249,97.723167,111.331383,312.595123,120.631927,149.026077,261.515381,131.842178,161.467972,114.587685,170.117157,148.608170
752,0,349.614105,97.476913,109.260986,312.860107,120.460136,147.831161,261.734894,131.876404,161.218307,114.571266,170.102173,148.599991
753,0,348.872131,97.154068,107.195229,313.047089,120.306915,146.542450,261.993500,131.958160,160.868942,114.600052,170.253616,148.607574
754,0,348.075226,96.968460,104.638672,313.309204,120.215233,145.019577,262.318604,132.119476,160.424271,114.588753,170.314713,148.617416
755,0,347.151428,96.702240,102.097710,313.506439,120.122368,143.343903,262.781708,132.313171,159.804047,114.649467,170.420929,148.577057
756,0,346.242432,96.428734,99.378105,313.847229,120.082726,141.467834,263.247253,132.575668,159.055099,114.773178,170.574127,148.501923
757,0,345.328888,96.222939,96.472900,314.108948,120.098724,139.437180,263.739532,132.878433,158.182251,114.908127,170.723801,148.405975
758,0,344.478058,96.182106,93.644798,314.362610,120.163239,137.210129,264.295593,133.133408,157.129852,115.044830,170.922211,148.319229
759,0,343.472443,96.325546,90.456505,314.625092,120.337425,134.895203,264.841461,133.407166,156.031387,115.154800,171.068329,148.208069
760,0,342.424286,96.669693,86.989433,314.781830,120.458344,132.474426,265.315155,133.526718,154.843140,115.260254,171.127365,148.154266
761,0,341.355927,96.755119,83.729805,314.929718,120.641869,130.066727,265.758423,133.592178,153.581726,115.341103,171.188049,148.135620
762,0,340.402557,97.222832,80.420769,315.052155,120.817810,127.588867,266.151855,133.578888,152.181046,115.435867,171.255203,148.091064
763,0,339.320740,97.626686,77.163857,315.078430,121.056923,125.107216,266.523254,133.607605,150.732941,115.782463,171.305664,147.982864
764,0,338.214447,97.936905,73.914818,315.199677,121.278542,122.704048,266.908356,133.670105,149.258545,115.927986,171.230270,147.915207
765,0,337.008972,98.197769,70.732796,315.232910,121.424667,120.334946,267.193634,133.692871,147.770462,116.027954,171.267944,147.834106
766,0,335.790344,98.425529,67.764252,315.219788,121.559517,118.065170,267.530182,133.784546,146.321457,116.208084,171.356201,147.686523
767,0,334.824371,98.581703,65.268509,315.196167,121.676102,115.951248,267.806671,133.865356,144.905579,116.372589,171.347015,147.530106
768,0,333.834747,98.754608,62.812916,315.170898,121.811707,114.108200,268.048828,133.953568,143.614761,116.474731,171.496429,147.456085
769,0,333.063995,98.984100,60.823696,315.107056,121.868011,112.453194,268.190521,134.034821,142.511688,116.606026,171.409653,147.296448
770,0,332.461182,99.099075,59.283924,315.032532,121.983910,111.195389,268.297028,134.074753,141.529816,116.735138,171.446930,147.188095
771,0,332.018982,99.301254,58.104176,315.001373,122.044075,110.188393,268.343353,134.030930,140.832550,116.797508,171.428223,147.127991
772,0,331.713409,99.461037,57.215847,314.932831,122.023018,109.520294,268.369659,133.910034,140.321808,116.794617,171.403244,147.064133
773,0,331.460938,99.549049,56.741611,314.893951,121.997940,109.182014,268.347198,133.787827,140.092636,116.815033,171.311691,147.069611
774,0,331.314087,99.516068,56.563824,314.891022,121.909019,109.136337,268.335205,133.612473,140.064514,116.794495,171.274841,147.128433
775,0,331.285400,99.432549,56.673855,314.886566,121.779282,109.351471,268.267578,133.441788,140.182022,116.781830,171.184845,147.196960
776,0,331.293854,99.320328,56.962631,314.886017,121.652077,109.745789,268.186584,133.309082,140.418640,116.741982,171.093872,147.277420
777,0,331.330872,99.174622,57.439377,314.869629,121.504120,110.245079,268.114258,133.187698,140.731506,116.700424,171.051620,147.364700
778,0,331.462952,98.926308,58.007168,314.882874,121.397423,110.729370,268.028351,133.119751,141.065231,116.608261,171.001251,147.413528
779,0,331.462341,98.732025,58.535580,314.887268,121.314606,111.186157,267.946899,133.075897,141.373764,116.572311,170.955017,147.465103
780,0,331.507141,98.556374,58.924980,314.859589,121.247116,111.541801,267.881866,133.070755,141.635101,116.527390,171.006973,147.505844
781,0,331.706696,98.446205,59.264580,314.865631,121.186943,111.808327,267.827637,133.045776,141.813644,116.477394,170.994507,147.528488
782,0,331.731171,98.310333,59.470921,314.832397,121.158951,111.946289,267.795074,133.066101,141.882477,116.478149,171.000320,147.511398
783,0,331.715607,98.272346,59.472145,314.799286,121.135124,111.961143,267.738647,133.052567,141.847687,116.485092,170.998428,147.439835
784,0,331.706360,98.232063,59.406704,314.788269,121.135788,111.867302,267.718658,133.070007,141.786438,116.451385,170.992599,147.444733
785,0,331.597107,98.340614,59.170044,314.758881,121.145058,111.704437,267.735718,133.052444,141.639572,116.483032,170.992157,147.387482
786,0,331.492279,98.484474,58.856247,314.724518,121.155869,111.453476,267.709290,133.026855,141.492416,116.428871,170.969940,147.382629
787,0,331.416718,98.608681,58.528915,314.709137,121.220161,111.187462,267.699951,132.990524,141.313553,116.446404,170.966492,147.353958
788,0,331.399536,98.749786,58.229443,314.688354,121.230652,110.875870,267.709351,132.927704,141.073517,116.418755,170.968826,147.344360
789,0,331.344025,98.791199,57.884293,314.666870,121.248199,110.595222,267.736725,132.909058,140.837494,116.444107,170.949371,147.295563
790,0,331.279877,98.847221,57.606491,314.653442,121.294075,110.342529,267.763763,132.876663,140.666382,116.484222,170.907501,147.294785
791,0,331.211731,98.884949,57.414482,314.676300,121.218895,110.183899,267.758179,132.856628,140.556946,116.494720,170.987274,147.265854
792,0,331.186798,98.874229,57.312767,314.654449,121.305527,110.031784,267.814087,132.950653,140.438599,116.491409,171.040665,147.284363
793,0,331.162445,98.834290,57.241020,314.677063,121.308525,109.979523,267.832153,133.008469,140.388504,116.591095,171.082932,147.310715
794,0,331.232086,98.757561,57.274479,314.701569,121.331108,109.951874,267.892181,133.061203,140.374222,116.590942,171.129684,147.281784
795,0,331.284668,98.729904,57.362545,314.736420,121.323364,110.000969,267.910767,133.140564,140.403870,116.624489,171.185226,147.273239
796,0,331.365356,98.763161,57.471878,314.757843,121.358780,110.107193,267.919342,133.127502,140.461807,116.622368,171.193939,147.215973
797,0,331.393433,98.769012,57.612167,314.731781,121.367943,110.254761,267.830536,133.127411,140.554733,116.574615,171.190292,147.294159
798,0,331.463440,98.826736,57.733463,314.737305,121.328468,110.370567,267.820068,133.085419,140.646637,116.550629,171.154602,147.255173
799,0,331.476624,98.828461,57.808407,314.717804,121.322456,110.470787,267.769257,133.020569,140.688263,116.527641,171.119583,147.277512
800,0,331.426483,98.811378,57.894421,314.683228,121.299873,110.526665,267.734100,132.964172,140.733932,116.517677,171.076065,147.293579
801,0,331.401428,98.774323,57.909565,314.648193,121.278473,110.523087,267.651276,132.960327,140.736984,116.474037,171.057861,147.327255
802,0,331.344543,98.707886,57.901085,314.569611,121.246834,110.492813,267.651184,132.935532,140.724243,116.450989,171.066528,147.339264
803,0,331.262512,98.659813,57.825558,314.532227,121.226631,110.411736,267.623138,132.953613,140.660919,116.419975,171.048080,147.322021
804,0,331.194855,98.625557,57.701580,314.528625,121.232483,110.307213,267.615479,132.956497,140.573181,116.398430,171.061951,147.290665
805,0,331.079865,98.589249,57.605331,314.498810,121.204216,110.191826,267.588806,132.998978,140.520355,116.376053,171.060867,147.282623
806,0,331.039825,98.602509,57.508957,314.458344,121.197334,110.096588,267.575806,132.978531,140.445053,116.367294,171.066986,147.271027
807,0,331.019135,98.596207,57.405235,314.415802,121.190033,109.997581,267.567047,132.977646,140.367599,116.391235,171.053650,147.257629
808,0,330.991669,98.636497,57.302372,314.379486,121.199936,109.924911,267.567261,132.972076,140.329193,116.403465,171.069458,147.250626
809,0,330.953033,98.667534,57.289379,314.399445,121.196014,109.912292,267.541595,132.956345,140.310028,116.405205,171.068146,147.249039
810,0,330.931427,98.736015,57.266434,314.379913,121.211502,109.910057,267.536652,132.949432,140.312317,116.379814,171.044159,147.248795
811,0,330.901428,98.736916,57.265980,314.345978,121.255753,109.912148,267.533356,132.949020,140.315826,116.358215,171.046219,147.251205
812,0,330.937256,98.744408,57.308796,314.326202,121.259346,109.930916,267.464417,132.996552,140.327911,116.360207,171.044830,147.251434
813,0,330.909668,98.718170,57.362415,314.317413,121.298912,109.967621,267.469116,133.042328,140.345200,116.337311,171.076675,147.297531
814,0,330.898804,98.721519,57.407692,314.316498,121.309616,109.968178,267.457123,133.084900,140.342041,116.300369,171.084961,147.312805
815,0,330.878387,98.686356,57.404640,314.293640,121.336784,109.957230,267.451996,133.104462,140.338593,116.319794,171.145691,147.293274
816,0,330.852997,98.639755,57.387966,314.299805,121.335884,109.949059,267.469666,133.150894,140.314590,116.321259,171.144257,147.275345
817,0,330.812683,98.578400,57.359909,314.283508,121.312660,109.897598,267.462616,133.154236,140.263229,116.335419,171.165192,147.261093
818,0,330.749878,98.536118,57.274117,314.234863,121.306473,109.813599,267.445770,133.181351,140.219009,116.337959,171.199844,147.253525
819,0,330.715302,98.610878,57.208363,314.231628,121.318909,109.753525,267.445709,133.144348,140.175262,116.330727,171.184586,147.235825
820,0,330.723724,98.650795,57.152443,314.222412,121.314491,109.715813,267.417633,133.105042,140.118347,116.295410,171.155533,147.255905
821,0,330.729218,98.711731,57.094044,314.217804,121.300117,109.691895,267.409210,133.057220,140.138168,116.255646,171.143143,147.265152
822,0,330.757874,98.692688,57.124210,314.183929,121.287292,109.718307,267.369019,133.021774,140.129944,116.239708,171.107239,147.227005
823,0,330.754822,98.665398,57.108887,314.169708,121.264671,109.709183,267.371429,132.987961,140.107788,116.258484,171.095749,147.225357
824,0,330.760193,98.600273,57.162285,314.173157,121.209702,109.698982,267.346741,132.970016,140.096924,116.277367,171.123734,147.234482
825,0,330.724152,98.531700,57.129745,314.204590,121.216637,109.666191,267.346741,133.012634,140.047531,116.285355,171.143845,147.207001
826,0,330.727448,98.439758,57.130428,314.190613,121.201485,109.665466,267.348358,133.038773,140.025696,116.307709,171.174408,147.165649
827,0,330.691925,98.406601,57.099911,314.223846,121.191231,109.621681,267.403107,133.083862,140.017761,116.333153,171.212555,147.173492
828,0,330.707794,98.394722,57.046810,314.229706,121.208923,109.547607,267.428833,133.170425,139.952438,116.382286,171.259781,147.106186
829,0,330.672577,98.362946,56.996094,314.247498,121.274887,109.450310,267.463654,133.251343,139.879013,116.364662,171.322144,147.101089
830,0,330.653961,98.356941,56.900288,314.269318,121.286217,109.382141,267.503876,133.308014,139.806747,116.427826,171.366959,147.081909
831,0,330.638489,98.336777,56.796047,314.287170,121.325592,109.249222,267.542816,133.348648,139.737137,116.483864,171.383041,147.053848
832,0,330.618805,98.372002,56.701382,314.297791,121.373199,109.182907,267.586639,133.380280,139.681793,116.505730,171.404694,147.028961
833,0,330.613312,98.402740,56.600334,314.321686,121.395378,109.076134,267.608093,133.411697,139.588348,116.504768,171.427216,146.995239
834,0,330.597992,98.435677,56.516151,314.297272,121.425385,109.007812,267.596771,133.438507,139.554169,116.501617,171.434814,147.017319
835,0,330.576691,98.464828,56.482952,314.301788,121.449959,108.940140,267.626740,133.486832,139.521072,116.523979,171.429886,146.987961
836,0,330.554993,98.427383,56.472897,314.304871,121.421722,108.920296,267.646606,133.487213,139.485733,116.530396,171.428986,147.006287
837,0,330.496429,98.355026,56.406788,314.291473,121.431503,108.863464,267.627380,133.479187,139.442352,116.504440,171.417831,146.997757
838,0,330.464386,98.295563,56.363003,314.299164,121.397964,108.806824,267.633759,133.479111,139.399521,116.458092,171.561966,147.111206
839,0,330.456757,98.241692,56.372459,314.292114,121.404045,108.771988,267.609558,133.535919,139.386490,116.502640,171.471848,146.969940
840,0,330.391327,98.170975,56.363525,314.286530,121.357391,108.758743,267.637695,133.513565,139.351395,116.496269,171.471375,146.954590
841,0,330.414459,98.143120,56.320652,314.269470,121.343803,108.706177,267.643036,133.503571,139.336594,116.506050,171.466095,146.959503
842,0,330.353027,98.120941,56.340656,314.244232,121.337204,108.721924,267.615021,133.536133,139.312057,116.525040,171.480148,146.976059
843,0,330.360321,98.130119,56.304886,314.240051,121.338043,108.660660,267.595032,133.553452,139.294235,116.529182,171.492020,146.958466
844,0,330.335266,98.126648,56.289772,314.225067,121.351524,108.671890,267.582092,133.572983,139.308395,116.537224,171.479691,146.957794
845,0,330.298828,98.184982,56.277233,314.220001,121.393349,108.679749,267.581787,133.593765,139.301849,116.468895,171.508270,146.962845
846,0,330.321259,98.185394,56.299122,314.207458,121.417236,108.671829,267.587067,133.626068,139.286636,116.467537,171.598740,146.928787
847,0,330.324677,98.176102,56.316116,314.172607,121.442596,108.672653,267.537567,133.677979,139.265030,116.479744,171.592087,146.910019
848,0,330.253387,98.122498,56.359268,314.149994,121.444260,108.665001,267.515442,133.704010,139.259918,116.424881,171.631989,146.888458
849,0,330.263580,98.121559,56.376755,314.143280,121.447296,108.670326,267.490112,133.732361,139.247147,116.440659,171.631531,146.857941
850,0,330.214081,98.132553,56.364616,314.105621,121.462044,108.641655,267.430023,133.765610,139.257507,116.366173,171.693893,146.856705
851,0,330.171112,98.069450,56.397717,314.085388,121.473724,108.650810,267.421326,133.787598,139.241882,116.353607,171.727844,146.879105
852,0,330.127960,98.087578,56.364552,314.039642,121.471596,108.624542,267.382050,133.816086,139.208145,116.392082,171.771896,146.782898
853,0,330.063446,98.023804,56.330654,314.030426,121.475609,108.607521,267.402649,133.860733,139.193848,116.351753,171.805862,146.806824
854,0,330.031708,98.003601,56.333702,314.010651,121.477516,108.558975,267.376099,133.908997,139.141296,116.330986,171.880112,146.812607
855,0,330.020203,97.962166,56.266178,313.991119,121.456039,108.490608,267.376282,133.938034,139.116699,116.329788,171.906143,146.798309
856,0,330.017700,97.963074,56.229156,314.006531,121.476364,108.437096,267.399139,133.973511,139.088837,116.344795,171.929550,146.764008
857,0,329.990570,97.958076,56.162468,314.031250,121.490944,108.406685,267.461914,134.009430,139.018387,116.384666,171.955704,146.755692
858,0,330.039032,97.961830,56.163342,314.050446,121.511200,108.379181,267.461365,134.010803,139.019089,116.390511,171.932938,146.762070
859,0,330.048431,97.984238,56.146309,314.057251,121.505730,108.364616,267.456909,133.982239,139.000290,116.407074,171.895905,146.769348
860,0,330.109131,98.020294,56.140987,314.079620,121.507072,108.354408,267.467590,133.964783,139.011215,116.394897,171.893478,146.760452
861,0,330.126770,98.008614,56.160007,314.100952,121.479973,108.396431,267.493286,133.933960,139.031631,116.397491,171.878433,146.765778
862,0,330.171143,98.000328,56.196301,314.110962,121.491875,108.441574,267.520111,133.922806,139.061996,116.417130,171.870880,146.804138
863,0,330.194427,97.982491,56.235786,314.100616,121.476570,108.501808,267.500641,133.922226,139.064423,116.399696,171.875168,146.787964
864,0,330.247314,97.955315,56.286377,314.116974,121.440063,108.520309,267.509827,133.908752,139.087265,116.414169,171.897354,146.750488
865,0,330.213135,97.922478,56.338875,314.124969,121.418015,108.523270,267.488434,133.930145,139.081055,116.462357,171.871994,146.731903
866,0,330.203217,97.869225,56.400127,314.097534,121.407814,108.561226,267.482208,133.932968,139.102386,116.418137,171.919815,146.753052
867,0,330.198547,97.850388,56.430248,314.083984,121.405716,108.591202,267.470673,133.962021,139.129776,116.397476,171.961914,146.773407
868,0,330.201172,97.825844,56.466984,314.101532,121.400078,108.579597,267.483612,133.973587,139.127853,116.376549,171.976074,146.752884
869,0,330.247253,97.789185,56.509579,314.086212,121.435959,108.621597,267.477173,133.987778,139.142563,116.422424,171.982224,146.707932
870,0,330.229340,97.825424,56.492699,314.089661,121.424881,108.615288,267.492310,134.002548,139.110580,116.408813,171.998032,146.732147
871,0,330.254883,97.813736,56.548820,314.076294,121.434364,108.612518,267.465546,134.021942,139.111710,116.409698,172.022903,146.703918
872,0,330.268951,97.816910,56.570553,314.079559,121.491798,108.649200,267.428436,134.046051,139.129700,116.368752,172.030319,146.711731
873,0,330.278625,97.854332,56.558201,314.075745,121.494904,108.652107,267.424683,134.083664,139.129974,116.389160,172.070099,146.749451
874,0,330.287628,97.889336,56.537857,314.100983,121.543770,108.613625,267.458282,134.137146,139.118347,116.382675,172.111694,146.680725
875,0,330.298401,97.884193,56.536156,314.078461,121.557983,108.588074,267.455170,134.167038,139.094360,116.447258,172.144409,146.628189
876,0,330.297852,97.892616,56.575539,314.076935,121.576874,108.612999,267.464325,134.191833,139.095596,116.428726,172.207230,146.643814
877,0,330.294189,97.876999,56.574986,314.091370,121.596283,108.637810,267.476105,134.192429,139.111816,116.422859,172.211472,146.641327
878,0,330.306366,97.850876,56.611500,314.062286,121.583237,108.647133,267.470367,134.214569,139.116318,116.417091,172.246078,146.644913
879,0,330.276581,97.868050,56.590508,314.080627,121.589767,108.629402,267.468994,134.221390,139.089066,116.429710,172.232864,146.599792
880,0,330.301544,97.878021,56.563076,314.084778,121.555473,108.616127,267.485535,134.210983,139.091644,116.455765,172.197235,146.577698
881,0,330.285553,97.886353,56.556347,314.091705,121.546936,108.621109,267.495758,134.187256,139.092697,116.413200,172.217377,146.609573
882,0,330.316437,97.802628,56.617279,314.072388,121.485870,108.658127,267.473511,134.126938,139.133759,116.395523,172.211716,146.653290
883,0,330.300476,97.767456,56.627224,314.078186,121.451790,108.662239,267.467743,134.103821,139.122284,116.435921,172.193207,146.662003
884,0,330.249878,97.710831,56.612724,314.033905,121.425468,108.624138,267.435577,134.102310,139.096603,116.422523,172.205490,146.657944
885,0,330.221527,97.664513,56.636963,314.056793,121.406784,108.651085,267.417175,134.062775,139.120850,116.407150,172.237518,146.631454
