Trajectories
100
,,Y_Hara_Hand:forearm,,,Y_Hara_Hand:mp,,,Y_Hara_Hand:PIP,,,Y_Hara_Hand:DIP,,,
Frame,Sub Frame,X,Y,Z,X,Y,Z,X,Y,Z,X,Y,Z
,,mm,mm,mm,mm,mm,mm,mm,mm,mm,mm,mm,mm
1,0,132.136337,167.108551,20.827793,115.022949,192.358276,74.277550,63.527092,204.206680,96.571777,-80.127762,259.009216,74.576111
2,0,131.825928,167.180084,21.366566,114.006714,192.608368,74.392487,62.544426,204.586105,96.535454,-80.773964,259.136688,74.272240
3,0,131.651108,167.321991,21.698326,113.147926,192.769684,74.434540,61.726414,204.970245,96.368629,-81.514809,259.281677,73.989189
4,0,131.453690,167.524857,21.800797,112.604248,193.214951,74.222214,61.155060,205.307541,96.111130,-82.090492,259.441956,73.659584
5,0,131.394958,167.647461,21.806107,112.191010,193.646225,73.860023,60.698044,205.642792,95.763756,-82.412193,259.680725,73.244003
6,0,131.366516,167.660019,21.641903,111.719368,193.764343,73.383522,60.373962,205.837143,95.357414,-82.704430,259.844757,72.843285
7,0,131.391037,167.735504,21.334127,111.368622,193.618835,72.885452,60.108253,205.980347,94.870232,-82.915581,259.960449,72.533073
8,0,131.439865,167.771362,21.077433,111.129158,193.579697,72.381264,59.903812,205.888443,94.438515,-83.028305,259.897217,72.206696
9,0,131.512070,167.948471,20.878588,110.939301,193.570572,72.039413,59.727711,205.711288,94.115562,-83.242538,259.840179,72.059082
10,0,131.643097,168.114624,20.569477,110.805603,193.409103,71.710327,59.498219,205.281387,93.686615,-83.257751,259.514954,71.852493
11,0,131.831436,168.161942,20.459921,110.697754,193.203720,71.503853,59.302761,204.904144,93.358246,-83.416779,259.236603,71.676582
12,0,132.090500,168.253448,20.453278,110.521461,193.028076,71.357773,59.042080,204.661255,93.097984,-83.622154,258.942780,71.456604
13,0,132.440704,168.346878,20.626450,110.331612,192.863785,71.232376,58.730316,204.256744,92.902374,-84.316086,259.139008,71.367218
14,0,132.908737,168.409073,21.007980,109.992363,192.630905,71.179085,58.392597,203.879608,92.731194,-84.514099,258.785614,71.147522
15,0,133.653091,168.475784,21.505869,109.669914,192.330078,71.044151,58.022556,203.464783,92.548409,-84.845642,258.457825,71.001801
16,0,134.484482,168.573074,22.067156,109.304817,192.007950,70.821884,57.602757,202.995895,92.339066,-85.299751,258.090515,70.967636
17,0,135.210114,168.726196,22.764135,108.935799,191.750671,70.645638,57.192375,202.513840,92.302086,-85.762268,257.703094,71.034431
18,0,135.752563,168.891220,23.698456,108.587875,191.554443,70.646698,56.856873,202.350372,92.467644,-86.045723,257.102417,71.120399
19,0,136.164612,169.021637,24.719599,108.186378,191.347107,70.711693,56.559353,202.305695,92.921532,-86.763618,257.028656,71.484985
20,0,136.443680,169.080414,25.936552,107.777275,191.103043,70.912735,56.228554,202.272842,93.428543,-87.058311,256.799652,71.785591
21,0,136.592239,169.078201,27.118528,107.388130,190.828964,71.186783,56.046436,202.222672,94.073235,-87.494446,256.684662,72.214088
22,0,136.824631,169.141464,28.419109,107.044395,190.532303,71.595047,55.878460,202.206711,94.811005,-87.994438,256.572937,72.823090
23,0,136.995712,169.331070,29.828337,106.766159,190.291336,72.163727,55.745316,202.163071,95.682495,-88.826302,256.720520,73.651337
24,0,137.362717,169.789307,31.390421,106.541481,190.205460,73.000389,55.635231,202.090775,96.757500,-88.962311,256.103607,74.467857
25,0,137.957108,170.525146,33.389000,106.421959,190.402863,74.287766,55.447655,202.011261,97.953308,-89.595284,255.815689,75.496498
26,0,138.869217,171.459229,36.087955,106.379219,190.782120,76.155045,55.107304,201.882477,99.260323,-90.047836,255.288330,76.488319
27,0,140.063293,172.592010,39.722839,106.220757,191.329193,78.604073,54.661358,201.858582,100.795166,-90.527412,254.778351,77.525513
28,0,141.391571,173.794128,44.125706,105.994827,191.901688,81.550415,53.996208,201.865906,102.699089,-91.258820,254.276367,78.782043
29,0,142.503860,175.314468,48.797176,105.678719,192.559479,84.907845,53.161934,201.936478,104.726700,-91.723259,253.414368,79.953964
30,0,143.433914,176.797516,53.750660,105.224449,193.469711,88.720749,52.209110,201.972000,106.946487,-92.917068,253.121552,81.409042
31,0,144.063568,178.027618,58.895580,104.586021,194.240250,92.684113,51.079296,201.829651,109.313309,-93.894577,252.662659,82.830856
32,0,144.305649,178.705750,64.066986,103.611053,194.650070,96.757874,49.784775,201.642502,111.824226,-95.030266,252.307205,84.251671
33,0,144.077362,178.641907,69.281097,102.442368,194.512741,100.854309,48.407749,201.333252,114.483566,-96.704826,252.332443,85.741028
34,0,143.445480,177.856628,74.282272,101.065392,193.901306,105.102631,46.816219,200.884354,117.177788,-97.577538,251.480133,87.087997
35,0,142.525208,176.568970,79.222687,99.447998,192.778137,109.213211,45.027725,200.209747,119.858421,-99.184769,251.183182,88.485252
36,0,141.341431,174.719482,83.969551,97.645859,191.355286,113.313026,43.188869,199.178955,122.455650,-100.030464,250.036423,89.639244
37,0,139.922592,172.471909,88.422951,95.649071,189.526886,117.215660,41.198147,197.836807,124.959465,-101.387840,249.058960,90.771828
38,0,138.285004,169.742722,92.489838,93.660133,187.266479,120.829285,39.219070,196.115387,127.269836,-102.727509,247.858902,91.775826
39,0,136.449783,166.651093,96.199883,91.484932,184.710785,124.085701,37.087975,194.100861,129.371445,-103.905434,246.354980,92.479156
40,0,134.529129,163.005676,99.301498,89.261841,181.685745,126.828033,35.031521,191.614151,131.095703,-105.258324,244.848694,93.166534
41,0,132.387024,158.773315,101.917259,86.985359,178.224350,129.055054,32.909702,188.713440,132.479523,-106.451736,243.031769,93.655670
42,0,130.100647,153.938477,103.756432,84.754761,174.081482,130.672928,30.836956,185.316437,133.409531,-107.660736,241.026016,93.948616
43,0,127.639519,148.513702,105.032478,82.377632,169.528870,131.751389,28.752932,181.468613,133.987823,-108.959404,238.844543,94.146912
44,0,125.064003,142.501846,105.730194,79.977287,164.301254,132.331711,26.644260,177.200790,134.196289,-110.204117,236.325592,94.157059
45,0,122.293648,136.048782,105.917358,77.495293,158.710236,132.481140,24.417128,172.544052,134.083191,-111.541306,233.666367,94.127678
46,0,119.301186,129.143509,105.699593,74.916306,152.671768,132.203247,22.166876,167.526566,133.652359,-112.798851,230.849808,93.890900
47,0,116.082893,121.720146,105.191147,72.201469,146.311966,131.606110,19.778793,162.253632,132.973984,-114.504646,227.874466,93.143028
48,0,112.653259,114.056915,104.326965,69.313179,139.763962,130.693954,17.438255,156.657944,131.978760,-115.842659,224.750809,92.414719
49,0,108.858910,105.854385,103.276459,66.272873,132.864471,129.683136,14.849639,151.274902,130.942123,-117.072662,221.531143,91.499924
50,0,104.755898,97.301575,102.040726,63.085712,125.695915,128.453568,12.283405,145.853928,129.715424,-118.045601,218.442368,90.542801
51,0,100.463043,88.651825,100.578735,59.790775,118.479294,127.051338,9.794426,140.357880,128.252472,-119.247147,215.875076,89.552063
52,0,96.037750,80.065048,98.971611,56.355824,111.176842,125.513374,7.301629,134.906494,126.586464,-120.343033,213.318375,88.260231
53,0,91.871346,72.076546,96.976372,52.992722,104.183311,123.670677,4.882987,129.422592,124.736519,-121.354843,210.730927,87.088181
54,0,88.021988,64.659508,94.662827,49.912140,97.513451,121.645248,2.528188,123.995987,122.775734,-122.559502,205.230927,84.726166
55,0,84.548523,57.881783,92.030174,47.054306,91.229668,119.292221,0.234563,118.592316,120.583969,-123.586754,203.228378,83.940437
56,0,81.323334,51.576584,89.199005,44.396851,85.388130,116.692070,-1.986911,113.332855,118.296638,-124.429604,199.100174,82.129982
57,0,78.225540,45.625519,86.210144,41.993038,79.834160,113.984489,-4.074082,108.305321,115.860115,-125.720856,197.497421,81.332298
58,0,75.281349,39.939678,83.144714,39.629597,74.651756,111.163879,-6.032582,103.693459,113.430794,-126.621124,193.366898,79.265991
59,0,72.425323,34.562149,80.090652,37.467346,69.719284,108.394814,-7.644812,99.502426,110.997917,-127.432137,190.341934,77.753250
60,0,69.773140,29.679352,77.154701,35.470879,65.284538,105.675201,-9.036242,95.757393,108.711052,-128.368195,186.860779,75.632034
61,0,67.421219,25.432339,74.350204,33.732288,61.330826,103.081230,-10.319957,92.422729,106.504280,-129.215530,185.858704,74.879402
62,0,65.410042,21.726522,71.760475,32.310154,58.046272,100.669144,-11.502636,89.406578,104.364944,-129.959045,183.879822,73.529991
63,0,63.807167,18.619383,69.423973,31.070034,55.176262,98.369453,-12.607688,86.710312,102.239326,-130.496445,179.944992,71.075417
64,0,62.531384,15.844556,67.282349,30.020504,52.633831,96.215904,-13.632964,84.240784,100.092896,-131.215958,178.712860,69.791183
65,0,61.360889,13.373072,65.151985,29.053305,50.461502,94.053627,-14.481664,82.070900,97.974045,-131.559662,176.059570,67.704353
66,0,60.169640,11.093541,62.832661,28.231266,48.437969,91.830315,-15.259105,80.168282,95.809380,-132.189117,175.702011,66.630280
67,0,58.972969,8.946162,60.225624,27.462730,46.517109,89.466431,-15.905535,78.339348,93.508011,-132.536224,173.406769,64.518448
68,0,57.880344,6.949065,57.229355,26.705153,44.681225,86.883522,-16.542093,76.457840,91.027321,-132.912003,172.045578,62.789120
69,0,56.955872,5.213401,53.856182,26.121252,42.961475,84.007622,-16.863462,74.897255,88.438271,-133.056091,171.282913,61.518250
70,0,56.289474,3.809853,50.094929,25.702173,41.472168,80.789604,-17.138145,73.391006,85.671646,-133.657852,170.133698,59.856548
71,0,55.768463,2.814506,45.974319,25.476406,40.174507,77.296730,-17.466515,71.883995,82.775414,-134.140350,168.990616,58.373905
72,0,55.097923,2.097556,41.287743,25.259871,38.979408,73.612526,-17.969416,70.549408,79.688606,-134.718903,167.934494,56.925709
73,0,54.390053,1.549312,36.472401,25.021507,37.910378,69.755157,-18.335520,69.271980,76.705193,-135.146805,166.895813,55.618687
74,0,53.423168,1.162123,31.540096,24.700390,37.064915,65.774147,-18.691593,68.306358,73.667305,-136.019333,166.304184,54.133202
75,0,52.331261,0.828448,26.677425,24.282040,36.525490,61.762558,-19.049597,67.584618,70.614922,-136.659134,165.740402,52.691704
76,0,51.802902,-0.033497,24.426880,23.757597,36.249290,58.396954,-19.534740,67.058250,67.644325,-137.307968,165.368500,51.100910
77,0,51.706337,-0.150951,24.440821,22.416733,36.632092,57.812756,-20.740431,66.812950,65.098633,-138.028549,165.100220,49.501579
78,0,51.314117,0.323796,24.509596,20.946537,37.090984,57.285149,-22.535879,66.835541,63.224003,-138.649109,164.868759,47.758572
79,0,50.906097,0.847508,24.557730,20.182173,37.948044,56.562420,-23.739094,67.571304,61.848137,-139.575897,164.866730,46.277885
80,0,50.422691,1.291615,24.500954,19.732244,39.081093,55.721554,-24.237751,68.615593,60.664585,-140.355240,165.283127,45.269226
81,0,49.989071,1.712450,24.470783,19.255159,40.014713,54.942211,-24.623055,69.605827,59.594326,-140.907791,165.513855,44.281158
82,0,49.572109,2.124557,24.431608,18.807602,40.745792,54.270775,-25.012634,70.348274,58.593513,-141.530762,165.436157,43.037682
83,0,49.259640,2.426229,24.365368,18.358404,41.237789,53.615566,-25.479555,70.812325,57.713737,-141.885880,165.630707,42.298664
84,0,48.924789,2.548868,24.350782,17.881659,41.486217,53.090469,-25.925314,71.028366,57.034992,-142.182938,165.732178,41.744331
85,0,48.670361,2.626729,24.301090,17.455212,41.620365,52.748840,-26.255581,71.163620,56.563313,-142.466736,165.660797,41.339134
86,0,48.538254,2.679868,24.291435,17.168642,41.686588,52.432465,-26.492537,71.268051,56.272728,-142.735092,165.510315,41.136436
87,0,48.472172,2.732593,24.278837,17.009748,41.698692,52.218544,-26.614996,71.264687,56.152363,-142.964127,165.244019,41.009640
88,0,48.418118,2.765545,24.304348,16.907740,41.661930,52.101364,-26.781332,71.080559,56.223553,-143.140167,164.996704,41.047237
89,0,48.444069,2.700652,24.313015,16.895393,41.538944,52.100956,-26.916042,70.887352,56.383476,-143.291580,164.717041,41.104290
90,0,48.453465,2.672589,24.324770,16.917843,41.410152,52.149334,-26.974838,70.700066,56.567223,-143.248032,164.506454,41.165165
91,0,48.595470,2.638305,24.323519,17.008081,41.309227,52.227200,-26.903757,70.577820,56.748249,-143.115433,164.322571,41.303932
92,0,48.619846,2.659939,24.351500,17.167292,41.294186,52.308884,-26.732420,70.526756,56.889763,-142.950500,164.251663,41.399433
93,0,48.777935,2.618379,24.356894,17.333712,41.302776,52.353203,-26.594206,70.536903,56.999500,-142.726685,164.226059,41.441124
94,0,48.834057,2.648130,24.340185,17.544170,41.372875,52.404572,-26.415222,70.611389,57.008259,-142.465210,164.286880,41.476944
95,0,48.982044,2.652221,24.377022,17.683928,41.527603,52.434547,-26.271614,70.751862,56.983715,-142.150772,164.342972,41.459560
96,0,48.900669,2.773661,24.300459,17.834999,41.654774,52.394863,-26.110989,70.893837,56.857658,-141.984863,164.441559,41.490978
97,0,49.013203,2.785398,24.319836,17.897894,41.818474,52.278698,-26.021618,71.104103,56.720757,-141.852661,164.587479,41.461536
98,0,49.009975,2.800764,24.316820,17.850889,41.932491,52.200005,-25.995232,71.184181,56.571552,-141.778641,164.695160,41.454361
99,0,48.873856,2.839730,24.255415,17.699697,41.895462,52.116459,-26.072378,71.269516,56.420620,-141.789169,164.734283,41.488037
100,0,48.859554,2.819136,24.271624,17.551357,41.817543,52.060387,-26.213503,71.228783,56.288136,-141.829361,164.761108,41.516464
101,0,48.802074,2.783310,24.322624,17.392462,41.835365,51.976135,-26.383665,71.214310,56.185146,-141.875702,164.762177,41.577133
102,0,48.709072,2.824157,24.300129,17.289656,41.834179,51.902672,-26.494806,71.162132,56.137440,-142.025314,164.735443,41.609753
103,0,48.590897,2.844082,24.274839,17.197254,41.816395,51.891243,-26.584541,71.157677,56.137127,-142.032364,164.715927,41.692135
104,0,48.549492,2.846490,24.311411,17.152952,41.811588,51.924511,-26.650799,71.105247,56.129059,-142.138138,164.644379,41.739979
105,0,48.545509,2.827519,24.320427,17.150589,41.811314,51.929825,-26.702490,71.103050,56.191917,-142.172806,164.604126,41.767796
106,0,48.578663,2.865890,24.315166,17.176746,41.848099,51.948452,-26.677559,71.054962,56.221050,-142.209259,164.559875,41.823925
107,0,48.539822,2.914872,24.323641,17.244627,41.889130,51.995907,-26.659492,71.110886,56.261055,-142.249023,164.531006,41.906445
108,0,48.664536,2.915132,24.352171,17.314865,41.889984,52.028419,-26.597193,71.096672,56.269485,-142.231689,164.491974,41.957649
109,0,48.630375,2.932000,24.336224,17.367149,41.917850,52.044346,-26.584099,71.107986,56.277321,-142.209549,164.364182,41.934998
110,0,48.688801,2.943200,24.330692,17.421902,41.928551,52.058655,-26.557913,71.098495,56.277580,-142.247299,164.299133,42.013794
111,0,48.763466,2.916990,24.345509,17.454668,41.933620,52.069843,-26.493641,71.061440,56.267963,-142.240479,164.202560,41.999165
112,0,48.815323,2.919802,24.334404,17.372606,42.010170,51.898640,-26.499670,71.080887,56.228931,-142.330811,164.117706,41.982433
113,0,48.787224,2.957348,24.333521,17.419640,41.948395,51.999355,-26.515438,71.089012,56.170849,-142.352982,164.022690,41.909286
114,0,48.706467,2.932742,24.330542,17.400578,41.958477,52.000504,-26.592056,71.054108,56.146206,-142.482666,163.966400,41.932205
115,0,48.732361,2.926661,24.365227,17.361204,41.937107,51.972664,-26.650761,71.062561,56.109367,-142.568802,163.839386,41.897953
116,0,48.688686,2.958570,24.364849,17.290781,41.949612,51.972580,-26.714540,71.027161,56.093018,-142.604828,163.717010,41.834240
117,0,48.681808,2.961789,24.350590,17.217388,41.905151,51.945057,-26.789234,71.024330,56.030388,-142.721359,163.680649,41.834194
118,0,48.601128,2.989044,24.328274,17.189579,41.914719,51.918846,-26.842728,71.013168,55.992172,-142.816772,163.599869,41.850967
119,0,48.581333,2.997719,24.317898,17.148111,41.946156,51.914940,-26.872963,70.997162,55.984982,-142.891083,163.514420,41.844723
120,0,48.604332,3.029268,24.369394,17.181021,42.005398,51.905506,-26.901802,71.045059,55.939636,-143.004105,163.502823,41.874443
121,0,48.526577,3.056520,24.346613,17.205988,42.025120,51.878418,-26.917974,71.052795,55.949928,-143.036743,163.449722,41.829720
122,0,48.595657,3.076456,24.321648,17.196358,42.072304,51.845947,-26.902861,71.083282,55.926556,-143.051559,163.387039,41.820309
123,0,48.652252,3.081635,24.348827,17.239012,42.082050,51.878849,-26.860399,71.085892,55.931366,-143.098694,163.387405,41.925255
124,0,48.649395,3.079386,24.361391,17.306221,42.123466,51.882313,-26.825260,71.124763,55.910675,-143.104095,163.336121,41.963055
125,0,48.653786,3.103186,24.347086,17.316992,42.159790,51.853516,-26.777863,71.173271,55.898964,-143.105484,163.313828,41.938519
126,0,48.678738,3.125848,24.365681,17.316174,42.158825,51.857635,-26.769274,71.180977,55.879101,-143.079330,163.251678,41.959774
127,0,48.604046,3.095853,24.337036,17.264074,42.116135,51.842098,-26.789635,71.150154,55.887165,-143.119095,163.237564,42.068123
128,0,48.654427,3.065408,24.351341,17.262856,42.061954,51.862286,-26.816000,71.107155,55.847370,-143.132812,163.183792,42.035198
129,0,48.604027,3.095347,24.338242,17.226128,42.059628,51.853207,-26.827250,71.108299,55.831303,-143.183945,163.154541,42.091885
130,0,48.651779,3.088048,24.340319,17.218254,42.068630,51.816544,-26.862104,71.124237,55.825062,-143.279175,163.157318,42.109634
131,0,48.544861,3.100424,24.339397,17.190027,42.061634,51.839741,-26.892702,71.109993,55.798729,-143.358505,163.103470,42.139683
132,0,48.577183,3.121879,24.336168,17.154818,42.053440,51.779919,-26.928898,71.108849,55.802402,-143.371719,163.086975,42.172752
133,0,48.536297,3.146371,24.314692,17.153576,42.074551,51.781002,-26.924570,71.124863,55.754990,-143.413773,163.058655,42.232838
134,0,48.575127,3.160056,24.323235,17.159458,42.149998,51.775978,-26.923206,71.152435,55.749634,-143.558975,163.116745,42.318253
135,0,48.585854,3.168050,24.313780,17.147375,42.181042,51.734367,-26.937963,71.194687,55.689392,-143.616867,163.111389,42.270954
136,0,48.595371,3.167445,24.339146,17.201645,42.218369,51.707626,-26.896498,71.203987,55.655743,-143.616653,163.112503,42.271542
137,0,48.564503,3.205368,24.328407,17.188026,42.240971,51.678593,-26.912054,71.227264,55.642284,-143.619354,163.114685,42.275040
138,0,48.573689,3.205324,24.348600,17.165009,42.287991,51.654724,-26.910995,71.281235,55.569180,-143.636597,163.139481,42.237343
139,0,48.557922,3.227340,24.328249,17.180563,42.288788,51.610043,-26.896013,71.310112,55.520107,-143.654037,163.126007,42.163494
140,0,48.545383,3.216170,24.318094,17.181437,42.303299,51.601147,-26.905910,71.324913,55.436749,-143.538498,163.070053,42.070103
141,0,48.585663,3.213305,24.346117,17.150045,42.294067,51.593105,-26.947651,71.310684,55.390392,-143.517441,163.056534,42.024345
142,0,48.505547,3.258009,24.356535,17.087666,42.292667,51.555187,-26.957563,71.323257,55.363491,-143.534683,163.047455,41.965527
143,0,48.507545,3.234627,24.344107,17.048517,42.274582,51.557732,-27.003775,71.306488,55.358551,-143.556717,163.016647,41.940720
144,0,48.506901,3.233531,24.342270,17.014280,42.265812,51.550644,-27.042128,71.314461,55.298161,-143.593796,163.004807,41.932705
145,0,48.492218,3.226406,24.358995,16.980585,42.289017,51.516155,-27.069603,71.352829,55.286880,-143.656937,163.042908,41.902775
146,0,48.464005,3.247857,24.342587,16.948912,42.296158,51.477489,-27.086136,71.328712,55.283897,-143.681076,163.012375,41.866730
147,0,48.440304,3.234885,24.355568,16.932148,42.288471,51.490776,-27.092747,71.333969,55.276882,-143.672516,162.994461,41.838104
148,0,48.437473,3.233415,24.350361,16.955564,42.307285,51.485538,-27.083727,71.343994,55.264286,-143.697006,162.977524,41.759899
149,0,48.464436,3.251069,24.361370,16.971466,42.327686,51.477657,-27.239054,71.536392,55.199883,-143.686279,162.970871,41.725491
150,0,48.491566,3.274781,24.343939,17.009396,42.392254,51.468109,-27.202118,71.532341,55.178776,-143.702667,162.947815,41.657585
151,0,48.489372,3.291456,24.357519,17.062826,42.419353,51.435741,-27.110357,71.538681,55.149109,-143.618195,162.996796,41.552265
152,0,48.529835,3.314064,24.364544,17.055813,42.445911,51.415462,-27.087954,71.566223,55.107784,-143.544449,162.982803,41.468052
153,0,48.551159,3.328553,24.374882,17.066761,42.485985,51.393978,-27.046581,71.555298,55.063732,-143.539276,162.979446,41.398788
154,0,48.551937,3.331406,24.356796,17.059303,42.544392,51.331741,-27.045446,71.634964,54.995491,-143.523438,163.022034,41.296043
155,0,48.559971,3.332228,24.368902,17.071033,42.587616,51.291386,-27.043535,71.634743,54.918209,-143.512100,163.045868,41.235027
156,0,48.568222,3.355644,24.370352,17.075848,42.619095,51.253448,-27.002407,71.708015,54.844776,-143.518112,163.060242,41.111549
157,0,48.572716,3.391437,24.369551,17.074833,42.690395,51.194534,-27.017466,71.776344,54.770107,-143.483154,163.086395,41.046490
158,0,48.455532,3.496023,24.357594,17.090141,42.750263,51.178467,-27.002039,71.842102,54.715881,-143.475327,163.149231,40.987549
159,0,48.431522,3.360148,24.465572,17.146753,42.740368,51.157299,-26.986813,71.919701,54.670429,-143.443161,163.210434,40.880436
160,0,48.493332,3.359060,24.443230,17.151312,42.761242,51.149139,-26.977133,71.975945,54.562565,-143.456894,163.250565,40.792725
161,0,48.496494,3.342458,24.472799,17.121403,42.809235,51.065624,-26.976526,72.039612,54.529884,-143.428741,163.289581,40.690598
162,0,48.525139,3.348269,24.452795,17.113186,42.899021,51.050583,-26.957119,72.066628,54.511330,-143.638657,163.753876,40.649300
163,0,48.595127,3.279048,24.487026,17.075066,42.860893,51.015575,-26.968056,72.077568,54.445034,-143.513016,163.564713,40.558208
164,0,48.594551,3.421550,24.378780,17.061985,42.909515,50.952744,-26.980190,72.082809,54.418510,-143.372650,163.283188,40.481411
165,0,48.656982,3.171088,24.569510,17.105688,42.861801,51.012260,-26.994102,72.090714,54.428238,-143.335541,163.221786,40.396561
166,0,48.531631,3.486568,24.371437,17.030085,42.946613,50.925938,-26.994505,72.090309,54.433182,-143.341705,163.229279,40.366680
167,0,48.535767,3.457700,24.375940,17.047348,42.922192,50.927753,-26.995066,72.088974,54.434299,-143.282135,163.235229,40.359768
168,0,48.528999,3.472372,24.368031,16.796654,43.124844,50.799900,-26.995167,72.078735,54.400085,-143.265244,163.255203,40.259602
169,0,48.499428,3.494763,24.372166,16.825104,43.181087,50.776333,-26.967152,72.122742,54.403469,-143.232269,163.269684,40.216099
170,0,48.489971,3.511101,24.368195,16.881609,43.163979,50.817020,-26.948708,72.154472,54.390305,-143.205566,163.291046,40.172543
171,0,48.536930,3.505910,24.383753,16.929401,43.185349,50.818523,-26.949427,72.219772,54.357738,-143.187637,163.330826,40.073456
172,0,48.521305,3.521904,24.380762,16.956799,43.191490,50.793774,-26.911999,72.266876,54.340206,-143.170044,163.365067,40.020424
173,0,48.510063,3.533100,24.379547,16.981054,43.193840,50.778294,-26.910069,72.299484,54.339977,-143.123688,163.363007,39.925255
174,0,48.505878,3.542073,24.368580,16.967367,43.204292,50.786583,-26.913517,72.333344,54.315250,-143.131134,163.343002,39.855007
175,0,48.530598,3.543963,24.365911,16.975643,43.230186,50.778137,-26.906542,72.324867,54.327114,-143.108017,163.403732,39.816551
176,0,48.529613,3.543919,24.364002,16.976967,43.217194,50.783466,-26.915182,72.324142,54.322586,-143.098541,163.397644,39.794369
177,0,48.529305,3.542120,24.349886,16.969772,43.203796,50.772568,-26.922539,72.290924,54.309155,-143.107880,163.397125,39.785763
178,0,48.527905,3.513074,24.375034,16.931671,43.167046,50.766865,-26.949575,72.295670,54.274246,-143.129395,163.404327,39.736042
179,0,48.496277,3.511174,24.360336,16.892830,43.138027,50.798172,-26.958546,72.287010,54.256531,-143.150925,163.390015,39.692482
180,0,48.534832,3.500369,24.369410,16.888844,43.121574,50.823498,-26.982193,72.262230,54.251705,-143.161606,163.379990,39.679432
181,0,48.522011,3.509527,24.359247,16.854359,43.075821,50.849941,-26.996117,72.265182,54.307041,-143.176453,163.364227,39.641674
182,0,48.524891,3.486810,24.369722,16.799242,43.052769,50.947414,-27.039080,72.234680,54.311195,-143.178711,163.374130,39.585846
183,0,48.490719,3.506946,24.386824,16.757349,43.049694,50.980431,-27.058348,72.242661,54.349777,-143.228271,163.365814,39.596333
184,0,48.451694,3.526025,24.394356,16.781055,43.047066,51.009171,-27.094255,72.218643,54.407894,-143.253372,163.354584,39.554970
185,0,48.452892,3.539082,24.392670,16.827435,43.040234,50.945030,-27.108074,72.238060,54.421604,-143.278656,163.340454,39.565281
186,0,48.473335,3.518229,24.390110,16.770899,43.090164,50.966663,-27.091049,72.212051,54.480194,-143.242676,163.348282,39.537796
187,0,48.475254,3.552326,24.372303,16.797590,43.100883,50.913483,-27.073116,72.223289,54.505325,-143.274292,163.343094,39.508472
188,0,48.480766,3.551767,24.395699,16.704807,43.217133,50.943306,-27.094526,72.227974,54.529381,-143.321289,163.331757,39.464420
189,0,48.483814,3.550762,24.393059,16.729589,43.254337,50.947956,-27.095091,72.226608,54.530479,-143.301208,163.376114,39.428120
190,0,48.500408,3.556052,24.387884,16.723288,43.222210,50.948700,-27.066717,72.263641,54.527847,-143.280823,163.365921,39.395729
191,0,48.522400,3.544833,24.405535,16.718378,43.229362,50.935467,-27.049593,72.276360,54.491688,-143.283661,163.411469,39.349262
192,0,48.507874,3.555722,24.412437,16.756336,43.217094,50.958969,-27.050848,72.279961,54.480495,-143.256927,163.392807,39.293156
193,0,48.509861,3.545674,24.425642,16.747679,43.185314,50.972721,-27.072710,72.299561,54.462208,-143.261902,163.424927,39.256817
194,0,48.477249,3.538189,24.430702,16.755156,43.156147,50.973152,-27.069921,72.283524,54.413704,-143.247925,163.411972,39.157219
195,0,48.480946,3.568254,24.415274,16.764484,43.144306,50.921116,-27.094025,72.325157,54.339798,-143.248749,163.423096,39.067810
196,0,48.462379,3.569330,24.408960,16.779274,43.167522,50.895195,-27.102045,72.362930,54.304745,-143.291870,163.461258,38.983902
197,0,48.470146,3.572329,24.418400,16.705505,43.192776,50.879272,-27.127432,72.395523,54.251438,-143.354614,163.499802,38.984859
198,0,48.453262,3.572231,24.392260,16.681644,43.196205,50.879848,-27.132696,72.393745,54.225880,-143.383850,163.528122,38.939342
199,0,48.438221,3.575235,24.357979,16.669769,43.150784,50.891254,-27.184992,72.360519,54.209972,-143.409912,163.583771,38.866001
200,0,48.390282,3.581219,24.383568,16.651581,43.184544,50.886818,-27.185717,72.360092,54.210556,-143.421448,163.585632,38.855843
201,0,48.401417,3.580587,24.394310,16.670610,43.211811,50.866638,-27.179665,72.389473,54.218864,-143.411774,163.594589,38.832733
202,0,48.375637,3.566864,24.449078,16.730377,43.200512,50.852478,-27.151342,72.404976,54.272106,-143.402603,163.592804,38.823574
203,0,48.365360,3.521082,24.484009,16.793421,43.169838,50.862888,-27.129179,72.412056,54.315319,-143.391022,163.592468,38.818424
204,0,48.349854,3.547877,24.462749,16.818405,43.175194,50.870430,-27.108864,72.382881,54.344311,-143.388763,163.590652,38.813461
205,0,48.356796,3.510822,24.512371,16.865324,43.224846,50.855682,-27.094639,72.364540,54.370884,-143.364319,163.572021,38.798168
206,0,48.424168,3.531338,24.510290,16.935770,43.182011,50.828026,-27.094231,72.359467,54.381531,-143.376312,163.552017,38.747601
207,0,48.440517,3.534317,24.502701,16.969845,43.158508,50.822838,-27.053587,72.369232,54.378216,-143.234329,163.545013,38.711624
208,0,48.459694,3.530984,24.505751,16.973217,43.177635,50.820129,-27.059683,72.376625,54.372501,-143.283417,163.520844,38.676704
209,0,48.456039,3.558288,24.482962,16.961788,43.205963,50.809971,-27.089563,72.371544,54.351406,-143.351181,163.535217,38.664291
210,0,48.509735,3.580135,24.451019,16.979919,43.204388,50.810390,-27.099701,72.392860,54.343956,-143.371338,163.550629,38.643829
211,0,48.541386,3.624461,24.422682,16.977299,43.245861,50.779537,-27.080353,72.398842,54.314095,-143.405746,163.541504,38.599514
212,0,48.536724,3.630945,24.414225,16.983459,43.279827,50.784092,-27.120857,72.480225,54.289452,-143.372269,163.549408,38.584969
213,0,48.511070,3.637128,24.425138,16.986588,43.294731,50.777058,-27.179230,72.615608,54.269573,-143.437012,163.610931,38.592125
214,0,48.517288,3.659079,24.417252,17.008066,43.329014,50.774769,-27.180056,72.638130,54.285881,-143.349640,163.621933,38.527824
215,0,48.539230,3.673325,24.388050,17.019014,43.373188,50.724838,-27.012836,72.524902,54.278915,-143.358109,163.629379,38.470425
216,0,48.528065,3.673550,24.389299,17.025360,43.398052,50.732864,-27.132473,72.701126,54.250423,-143.338882,163.624222,38.445999
217,0,48.524487,3.686553,24.399775,17.041672,43.408218,50.714924,-27.099649,72.772896,54.247128,-143.356949,163.624466,38.438824
218,0,48.568584,3.685235,24.433727,17.065928,43.452648,50.698700,-27.087898,72.770012,54.227169,-143.353714,163.668564,38.444805
219,0,48.610714,3.733116,24.416422,17.100639,43.481403,50.680626,-27.019108,72.773491,54.199936,-143.329788,163.684479,38.415169
220,0,48.606720,3.728434,24.420612,17.128590,43.472065,50.659466,-27.006672,72.794868,54.167133,-143.292206,163.690735,38.393234
221,0,48.615726,3.709775,24.432398,17.129416,43.489536,50.644585,-27.003803,72.792526,54.144794,-143.296265,163.670746,38.318409
222,0,48.631363,3.704259,24.418180,17.128208,43.507999,50.625500,-26.975605,72.803215,54.111328,-143.293839,163.658264,38.312214
223,0,48.605824,3.687285,24.409779,17.147211,43.501854,50.613361,-26.969835,72.830070,54.069611,-143.299713,163.667465,38.270676
224,0,48.640591,3.677770,24.418005,17.148157,43.554489,50.578800,-26.930737,72.846436,54.010193,-143.293808,163.664215,38.234341
225,0,48.613262,3.683682,24.373234,17.143450,43.542732,50.562878,-26.911402,72.838295,53.965008,-143.281693,163.642365,38.211655
226,0,48.607197,3.685638,24.410572,17.135303,43.529747,50.558849,-26.936720,72.823929,53.915802,-143.319580,163.651306,38.137871
227,0,48.626396,3.687623,24.391708,17.103346,43.534935,50.530727,-26.934868,72.825966,53.881798,-143.358200,163.665482,38.150723
228,0,48.524986,3.744645,24.380606,17.090481,43.527370,50.534237,-26.959459,72.853584,53.917820,-143.368500,163.672821,38.169476
229,0,48.563515,3.768619,24.369207,17.094021,43.517052,50.546589,-27.007132,72.827568,53.941769,-143.395660,163.669647,38.170258
230,0,48.553627,3.782434,24.369944,17.094652,43.499832,50.553349,-27.008711,72.806160,53.999760,-143.441086,163.622223,38.192837
231,0,48.556129,3.787946,24.351892,17.075415,43.461296,50.586685,-26.995495,72.783112,54.048546,-143.449081,163.614120,38.225475
232,0,48.518253,3.767195,24.355177,17.047533,43.436573,50.632893,-27.031389,72.721458,54.138374,-143.485977,163.636887,38.324306
233,0,48.544937,3.734935,24.382435,17.027515,43.392509,50.682590,-27.040340,72.651344,54.218136,-143.511002,163.594849,38.365231
234,0,48.510052,3.741233,24.388662,17.077192,43.346542,50.729984,-27.048332,72.631348,54.284126,-143.512970,163.554092,38.399643
235,0,48.550365,3.749968,24.374704,17.098337,43.364876,50.731346,-27.039274,72.615715,54.336990,-143.524445,163.548401,38.376732
236,0,48.579601,3.741256,24.383461,17.115692,43.363949,50.766411,-27.031128,72.633827,54.339924,-143.539322,163.521988,38.407593
237,0,48.576408,3.741075,24.385347,17.120060,43.356098,50.768234,-27.013210,72.607094,54.347301,-143.634949,163.561340,38.482029
238,0,48.546997,3.726957,24.377663,17.115946,43.358707,50.767914,-27.027138,72.631966,54.334393,-143.514694,163.511139,38.400974
239,0,48.546009,3.735186,24.363655,17.121199,43.387123,50.734959,-27.034193,72.634537,54.302563,-143.554794,163.534241,38.384228
240,0,48.565472,3.740200,24.353090,17.148354,43.370033,50.719429,-27.026554,72.660614,54.286839,-143.530136,163.538208,38.331627
241,0,48.572086,3.755105,24.366800,17.128548,43.403694,50.688385,-27.039740,72.689964,54.238831,-143.584961,163.508850,38.297417
242,0,48.574890,3.756618,24.367346,17.123194,43.412128,50.693863,-27.053062,72.719353,54.231274,-143.602890,163.517914,38.279686
243,0,48.535004,3.760895,24.318947,17.103136,43.468739,50.661659,-27.041771,72.727898,54.206604,-143.608444,163.538834,38.235611
244,0,48.529976,3.774096,24.323055,17.108162,43.452499,50.630856,-27.037577,72.754570,54.173611,-143.615570,163.518463,38.143467
245,0,48.610687,3.785903,24.345098,17.101019,43.487156,50.616932,-27.045891,72.752304,54.141415,-143.611786,163.514526,38.135128
246,0,48.554996,3.782060,24.327051,17.131351,43.486076,50.604145,-27.039614,72.789886,54.116009,-143.628235,163.526138,38.118214
247,0,48.583073,3.796559,24.337801,17.139429,43.495277,50.597351,-27.048872,72.806931,54.098118,-143.620544,163.520279,38.098076
248,0,48.579811,3.789979,24.323709,17.159990,43.530579,50.594883,-27.021006,72.791321,54.100761,-143.626297,163.510559,38.078445
249,0,48.601780,3.795405,24.337725,17.165394,43.511162,50.588421,-27.020800,72.808594,54.098705,-143.624756,163.508942,38.077396
250,0,48.610172,3.807740,24.354830,17.168869,43.546139,50.586731,-26.995708,72.823105,54.133011,-143.625717,163.509430,38.076878
251,0,48.640991,3.794501,24.362104,17.179655,43.554470,50.615490,-26.983246,72.832962,54.135418,-143.627060,163.539154,38.097698
252,0,48.640785,3.803388,24.369162,17.228754,43.548798,50.613789,-26.955143,72.864037,54.146358,-143.609695,163.564514,38.090511
253,0,48.645855,3.812028,24.329361,17.246834,43.571598,50.609497,-26.950230,72.891289,54.132706,-143.594086,163.534378,38.052452
254,0,48.651993,3.823260,24.354736,17.221170,43.569912,50.611538,-26.948811,72.907059,54.152596,-143.595795,163.547836,38.036854
255,0,48.652351,3.821095,24.359558,17.228878,43.555111,50.624279,-26.957481,72.900772,54.149475,-143.600449,163.528412,38.007683
256,0,48.646664,3.815080,24.362875,17.212612,43.578552,50.634602,-26.971840,72.912689,54.159260,-143.564636,163.542206,37.985100
257,0,48.607994,3.850513,24.338369,17.190166,43.557812,50.619247,-26.979933,72.913307,54.169983,-143.566116,163.535248,37.970463
258,0,48.602585,3.826600,24.346767,17.229036,43.527367,50.617954,-26.993179,72.914589,54.167171,-143.594177,163.532166,37.983570
259,0,48.608948,3.816560,24.353481,17.221262,43.533634,50.635777,-27.023975,72.878731,54.171959,-143.623352,163.491013,37.961033
260,0,48.623493,3.821234,24.353025,17.186428,43.518356,50.636009,-27.027584,72.883469,54.167473,-143.631989,163.492920,37.980213
261,0,48.606083,3.796056,24.339096,17.185978,43.527336,50.639713,-27.045681,72.847992,54.204971,-143.605957,163.500427,37.985096
262,0,48.574959,3.794570,24.353310,17.187021,43.533432,50.643379,-27.031229,72.851723,54.207584,-143.608307,163.489853,37.982632
263,0,48.579418,3.800340,24.360113,17.178535,43.508430,50.678371,-27.024033,72.842667,54.222893,-143.649780,163.516144,37.986649
264,0,48.545731,3.806923,24.325628,17.177813,43.550358,50.669273,-27.017080,72.828651,54.227619,-143.684692,163.516388,37.990025
265,0,48.615635,3.791209,24.357637,17.188232,43.536869,50.665546,-27.013601,72.856209,54.226585,-143.704926,163.510284,37.977039
266,0,48.636673,3.816002,24.345100,17.188705,43.545845,50.652142,-26.990019,72.867821,54.205971,-143.692963,163.533554,37.964588
267,0,48.646198,3.825762,24.350992,17.206322,43.534119,50.625507,-27.010685,72.920395,54.170166,-143.659515,163.543091,37.914368
268,0,48.647331,3.821175,24.357065,17.240105,43.543152,50.613602,-27.009773,72.918282,54.160316,-143.709564,163.482819,37.880951
269,0,48.668297,3.824545,24.353458,17.251038,43.549343,50.608379,-26.989002,72.921295,54.137375,-143.710434,163.482391,37.880562
270,0,48.683098,3.821237,24.357985,17.262932,43.562206,50.609013,-26.978844,72.915077,54.129387,-143.715912,163.471069,37.843857
271,0,48.621723,3.835309,24.349688,17.260771,43.562820,50.607422,-26.792982,72.712532,54.117851,-143.719986,163.468567,37.843819
272,0,48.622540,3.832992,24.357155,17.238878,43.546898,50.611084,-26.970987,72.859840,54.127472,-143.722229,163.478546,37.859596
273,0,48.641647,3.836760,24.358446,17.226849,43.565857,50.612923,-26.943924,72.848915,54.131489,-143.718887,163.484177,37.898792
274,0,48.646206,3.842122,24.351706,17.223907,43.566528,50.614830,-26.968626,72.836075,54.176159,-143.729141,163.469864,37.867741
275,0,48.637836,3.827396,24.367321,17.216759,43.547794,50.620033,-26.954016,72.827812,54.178551,-143.724884,163.520554,37.893520
276,0,48.599388,3.834379,24.338963,17.181459,43.577919,50.608986,-26.981892,72.804871,54.217144,-143.802429,163.524551,37.936390
277,0,48.538830,3.842713,24.361208,17.178484,43.583748,50.620090,-26.989517,72.847198,54.230743,-143.818848,163.565414,37.959095
278,0,48.581951,3.831630,24.378353,17.173994,43.563671,50.619343,-26.966715,72.820824,54.206509,-143.793259,163.602905,37.954460
279,0,48.553303,3.865071,24.350256,17.212168,43.566959,50.626724,-26.852886,72.690674,54.213959,-143.763321,163.581009,37.904659
280,0,48.609306,3.848764,24.368275,17.209753,43.579208,50.639278,-26.888144,72.781242,54.221905,-143.763992,163.615982,37.905495
281,0,48.601746,3.841866,24.375237,17.207308,43.585415,50.621155,-26.859772,72.764008,54.225063,-143.734161,163.595490,37.916256
282,0,48.612099,3.861952,24.351292,17.238415,43.620800,50.632164,-26.778025,72.731537,54.216942,-143.715973,163.567596,37.879547
283,0,48.682228,3.879654,24.391201,17.287935,43.601166,50.617508,-26.778818,72.747818,54.227032,-143.704239,163.601196,37.910210
284,0,48.656609,3.864129,24.374409,17.286129,43.604950,50.620407,-26.737173,72.761452,54.232311,-143.704544,163.603409,37.912415
285,0,48.661045,3.868898,24.357197,17.292645,43.636806,50.610752,-26.739332,72.760582,54.234161,-143.689575,163.631012,37.915314
286,0,48.623283,3.875269,24.351521,17.273544,43.661007,50.630993,-26.744051,72.781631,54.221050,-143.717209,163.595901,37.887360
287,0,48.663445,3.860061,24.368574,17.302015,43.654472,50.631409,-26.736050,72.784569,54.249165,-143.712433,163.591049,37.874283
288,0,48.689804,3.878510,24.386030,17.345060,43.662376,50.644623,-26.739655,72.789490,54.233730,-143.743179,163.599564,37.854599
289,0,48.650040,3.855748,24.370655,17.326778,43.644669,50.638500,-26.774248,72.786011,54.216915,-143.776917,163.606491,37.844181
290,0,48.677883,3.878886,24.375471,17.288803,43.601074,50.625450,-26.784784,72.749367,54.256420,-143.789673,163.561218,37.858727
291,0,48.667381,3.851643,24.374174,17.293003,43.584415,50.643238,-26.804073,72.711166,54.277302,-143.852249,163.521103,37.885448
292,0,48.635048,3.861834,24.372095,17.287363,43.568214,50.644573,-26.833260,72.668282,54.306416,-143.841019,163.529373,37.927513
293,0,48.595703,3.876729,24.358004,17.307932,43.543789,50.666756,-26.826220,72.651810,54.294872,-143.869720,163.480957,37.954651
294,0,48.664238,3.847038,24.389862,17.335125,43.545349,50.700634,-26.832687,72.652924,54.332722,-143.933975,163.452835,37.944874
295,0,48.687801,3.843366,24.399755,17.324644,43.566895,50.702480,-26.832493,72.649086,54.344666,-143.905746,163.424500,37.958702
296,0,48.675777,3.844523,24.398064,17.327848,43.562893,50.709599,-26.812420,72.667831,54.374496,-143.940216,163.437057,37.957211
297,0,48.706142,3.838112,24.387356,17.318483,43.551445,50.697289,-26.810774,72.654228,54.364475,-143.934174,163.442841,37.992908
298,0,48.661602,3.849233,24.379240,17.330404,43.569355,50.708817,-26.829065,72.656609,54.363239,-143.957535,163.397797,37.946827
299,0,48.667183,3.858464,24.398083,17.331507,43.568459,50.708267,-26.823172,72.667366,54.366322,-143.953888,163.442459,37.951435
300,0,48.629795,3.862499,24.395805,17.330772,43.569286,50.708736,-26.812748,72.656754,54.360790,-143.987808,163.412018,37.955040
301,0,48.664577,3.860147,24.396439,17.326109,43.573040,50.690022,-26.804474,72.664673,54.362309,-143.974472,163.447144,37.991360
302,0,48.667671,3.879902,24.379963,17.320881,43.580032,50.678883,-26.816145,72.675201,54.360516,-143.956192,163.416000,37.984383
303,0,48.679996,3.863875,24.391438,17.330116,43.608944,50.694633,-26.791006,72.714195,54.363644,-143.957047,163.473572,38.009319
304,0,48.684765,3.868260,24.377907,17.346718,43.618523,50.684193,-26.776962,72.717995,54.367638,-143.963043,163.513016,38.081024
305,0,48.649666,3.877364,24.380838,17.332380,43.635406,50.678322,-26.751869,72.732994,54.369450,-143.940048,163.521561,38.075626
306,0,48.664021,3.875773,24.380831,17.329872,43.651203,50.674053,-26.745186,72.753159,54.336765,-143.937668,163.517395,38.064808
307,0,48.686375,3.761515,24.479134,17.333849,43.655758,50.653248,-26.737879,72.754074,54.300072,-143.943863,163.529510,38.110497
308,0,48.698551,3.910001,24.397596,17.313040,43.648487,50.625214,-26.733177,72.761185,54.309784,-143.938461,163.519867,38.066105
309,0,48.686794,3.917144,24.372950,17.358360,43.674313,50.630424,-26.740501,72.787224,54.307480,-143.929901,163.557312,38.116360
310,0,48.707485,3.885164,24.402077,17.369307,43.677608,50.635872,-26.738699,72.777954,54.319550,-143.917236,163.539139,38.126575
311,0,48.711300,3.892767,24.389429,17.376337,43.649113,50.660347,-26.709002,72.798592,54.337162,-143.929169,163.562469,38.154175
312,0,48.714294,3.909751,24.366550,17.376680,43.653965,50.650063,-26.705317,72.805038,54.370541,-143.917877,163.573364,38.199718
313,0,48.716721,3.738268,24.518419,17.384914,43.642982,50.707462,-26.684471,72.785347,54.408138,-143.902802,163.559875,38.216606
314,0,48.676144,3.892225,24.389914,17.375538,43.656788,50.691986,-26.689724,72.773575,54.422432,-143.873398,163.584045,38.266163
315,0,48.694218,3.886669,24.382683,17.409697,43.651325,50.693062,-26.657375,72.756416,54.440948,-143.901993,163.581863,38.306900
316,0,48.726311,3.886133,24.381956,17.414316,43.632988,50.698826,-26.651253,72.753975,54.465878,-143.883469,163.543762,38.331799
317,0,48.731365,3.886025,24.394859,17.429087,43.663612,50.728168,-26.632252,72.752945,54.485947,-143.886154,163.551834,38.341801
318,0,48.726959,3.883365,24.402700,17.450333,43.645985,50.714211,-26.637783,72.757355,54.495243,-143.907654,163.556107,38.364002
319,0,48.751572,3.884574,24.375250,17.439798,43.655647,50.711876,-26.615000,72.756699,54.493500,-143.884415,163.576706,38.369675
320,0,48.745239,3.885657,24.376390,17.465876,43.692749,50.709175,-26.602205,72.763397,54.492146,-143.865158,163.607574,38.401810
321,0,48.745682,3.883533,24.378506,17.457634,43.688389,50.693058,-26.598999,72.778191,54.487865,-143.867493,163.590775,38.424805
322,0,48.727840,3.873943,24.391853,17.506311,43.662102,50.699249,-26.604063,72.780708,54.486931,-143.882675,163.625153,38.466557
323,0,48.746075,3.883629,24.392319,17.460663,43.688721,50.718777,-26.583841,72.761154,54.493866,-143.873322,163.611877,38.481236
324,0,48.759132,3.902776,24.384777,17.459143,43.686928,50.729286,-26.613298,72.756561,54.528286,-143.900436,163.599503,38.507481
325,0,48.739883,3.892356,24.377401,17.464954,43.691868,50.734661,-26.593386,72.783127,54.527565,-143.869675,163.620712,38.533493
326,0,48.730000,3.882877,24.392427,17.461115,43.658867,50.755547,-26.591385,72.772804,54.557388,-143.922546,163.608139,38.536827
327,0,48.733875,3.882482,24.394077,17.450888,43.663937,50.775143,-26.607077,72.758598,54.590977,-143.940796,163.593719,38.558949
328,0,48.721748,3.879237,24.400219,17.491381,43.629200,50.773899,-26.608204,72.718498,54.582111,-143.943405,163.580505,38.544502
329,0,48.712952,3.888748,24.369432,17.471863,43.677662,50.743958,-26.615213,72.730751,54.564846,-143.924942,163.534225,38.529644
330,0,48.703949,3.900344,24.377300,17.489483,43.649212,50.773064,-26.609772,72.718887,54.580814,-143.935501,163.562607,38.580692
331,0,48.742687,3.883518,24.394518,17.514284,43.641895,50.779758,-26.601896,72.755936,54.601223,-143.938232,163.568024,38.593739
332,0,48.760517,3.899050,24.387684,17.517326,43.628933,50.765560,-26.612288,72.740906,54.614849,-143.944855,163.519623,38.565502
333,0,48.770096,3.921660,24.379148,17.504890,43.671406,50.760902,-26.588026,72.756256,54.621567,-143.964111,163.536911,38.610790
334,0,48.750179,3.918236,24.382355,17.504293,43.695732,50.740974,-26.585972,72.759018,54.617886,-143.959045,163.510330,38.597511
335,0,48.734486,3.937617,24.383152,17.508091,43.676147,50.724689,-26.586235,72.768898,54.596642,-143.969376,163.529190,38.598911
336,0,48.776726,3.932537,24.385185,17.497818,43.694492,50.737408,-26.594997,72.767113,54.606720,-143.955170,163.537689,38.623718
337,0,48.771095,3.946661,24.383469,17.533606,43.711525,50.743755,-26.589001,72.769730,54.596252,-143.950516,163.521957,38.587162
338,0,48.756714,3.931910,24.379423,17.517401,43.692085,50.738861,-26.575577,72.770912,54.590588,-143.967285,163.502502,38.555187
339,0,48.746876,3.901338,24.382208,17.483835,43.673409,50.733982,-26.596188,72.777916,54.577888,-143.957138,163.527206,38.592709
340,0,48.694904,3.923714,24.366934,17.473698,43.685833,50.728001,-26.637627,72.759186,54.552467,-143.989212,163.479462,38.568413
341,0,48.744324,3.913386,24.384752,17.468859,43.683414,50.731312,-26.630352,72.722458,54.545681,-144.007111,163.458374,38.578297
342,0,48.754990,3.931474,24.409878,17.467566,43.683239,50.731037,-26.630623,72.752228,54.568607,-144.008438,163.454178,38.577267
343,0,48.749500,3.906804,24.382444,17.467226,43.641945,50.721722,-26.645651,72.710907,54.595619,-144.000015,163.471283,38.620529
344,0,48.726929,3.903796,24.390238,17.438572,43.650795,50.736778,-26.666803,72.714600,54.566795,-143.990646,163.475403,38.655670
345,0,48.705460,3.910854,24.401995,17.437897,43.651485,50.747841,-26.651239,72.678345,54.617271,-143.988266,163.470398,38.641685
346,0,48.740448,3.909339,24.389410,17.441395,43.644981,50.780140,-26.652790,72.667534,54.609028,-143.969696,163.451859,38.652206
347,0,48.733051,3.905632,24.390522,17.439955,43.648479,50.787628,-26.667870,72.683487,54.639988,-143.973251,163.454132,38.639465
348,0,48.725941,3.899390,24.376829,17.439974,43.645985,50.779457,-26.662172,72.698311,54.630871,-143.986435,163.467453,38.640186
349,0,48.704159,3.920604,24.366274,17.449890,43.671844,50.752663,-26.638771,72.733368,54.630074,-143.987396,163.507507,38.660095
350,0,48.668259,3.934439,24.351145,17.468830,43.686836,50.755199,-26.640060,72.715080,54.612705,-143.961380,163.510345,38.656933
351,0,48.709915,3.923626,24.377710,17.435072,43.687393,50.747669,-26.639177,72.715431,54.608021,-143.965332,163.510361,38.637188
352,0,48.720623,3.922748,24.386755,17.447765,43.689091,50.740692,-26.682558,72.740074,54.577587,-143.960312,163.510254,38.655857
353,0,48.708546,3.919767,24.373924,17.438013,43.665306,50.754089,-26.656666,72.691841,54.583321,-143.978928,163.530151,38.647778
354,0,48.700089,3.914240,24.401196,17.423388,43.647629,50.734310,-26.670664,72.694908,54.566849,-143.973541,163.532455,38.639336
355,0,48.701443,3.918977,24.365969,17.411089,43.643032,50.723839,-26.691448,72.706078,54.539181,-143.975143,163.530609,38.637218
356,0,48.655815,3.958021,24.346889,17.401388,43.640629,50.710289,-26.723013,72.727402,54.553673,-143.972153,163.532822,38.659237
357,0,48.476673,4.019676,24.343861,17.396578,43.621841,50.708256,-26.754988,72.715019,54.547810,-143.992584,163.549896,38.654503
358,0,48.687252,3.847294,24.413986,17.346062,43.623631,50.719059,-26.735027,72.719414,54.528744,-143.996262,163.552353,38.634968
359,0,48.696507,3.838681,24.418264,17.404816,43.651619,50.694561,-26.724318,72.700867,54.527073,-143.982971,163.526718,38.624104
360,0,48.683144,3.844867,24.421375,17.415457,43.607094,50.693031,-26.740646,72.738045,54.524826,-144.023010,163.538940,38.597225
361,0,48.696003,3.862291,24.401398,17.373461,43.680733,50.674427,-26.740419,72.738617,54.525566,-144.008698,163.543762,38.619221
362,0,48.706593,3.859381,24.427467,17.388926,43.671162,50.706806,-26.721558,72.734352,54.517452,-144.010376,163.556717,38.625229
363,0,48.732792,3.854174,24.425747,17.396921,43.667282,50.695457,-26.723248,72.731041,54.516567,-143.987106,163.539276,38.630333
364,0,48.704750,3.884400,24.411367,17.387327,43.681435,50.714802,-26.721203,72.712502,54.512875,-143.985718,163.521851,38.620682
365,0,48.718483,3.882474,24.413198,17.381397,43.662624,50.706318,-26.701464,72.719879,54.520893,-144.016846,163.549759,38.651417
366,0,48.717926,3.885096,24.431147,17.383709,43.662502,50.700794,-26.736010,72.693756,54.513264,-144.130417,163.704468,38.652897
367,0,48.673367,3.891131,24.444407,17.364952,43.700359,50.714813,-26.727859,72.676170,54.523811,-144.296860,164.017975,38.768955
368,0,48.675163,3.871787,24.424749,17.250370,43.764278,50.683151,-26.716661,72.715858,54.529831,-144.458054,164.340637,38.816013
369,0,48.643158,3.872890,24.429544,17.174395,43.843056,50.653934,-26.717087,72.707237,54.532314,-144.151077,163.720764,38.734840
370,0,48.677280,3.876320,24.419163,17.398573,43.675514,50.677074,-26.721262,72.754684,54.528492,-144.153870,163.718018,38.708752
371,0,48.677994,3.875879,24.423527,17.411831,43.650753,50.691578,-26.716722,72.756866,54.523399,-144.156998,163.748184,38.743164
372,0,48.668621,3.887261,24.439566,17.406872,43.649010,50.704716,-26.717878,72.750290,54.540737,-144.167236,163.764526,38.792847
373,0,48.707100,3.915370,24.442299,17.392220,43.688351,50.722591,-26.716681,72.749275,54.540356,-144.181992,163.827332,38.771755
374,0,48.709866,3.916327,24.457121,17.395079,43.696095,50.721390,-26.716995,72.777161,54.580902,-144.151352,163.794006,38.770237
375,0,48.662594,3.916815,24.463203,17.448565,43.716206,50.740753,-26.694078,72.786339,54.606995,-144.180283,163.832443,38.799561
376,0,48.732677,3.913538,24.468433,17.476692,43.680649,50.759129,-26.691671,72.806503,54.608307,-144.094208,163.799026,38.788601
377,0,48.687092,3.909595,24.461000,17.477404,43.679298,50.758648,-26.677330,72.790695,54.624454,-144.142639,163.777191,38.765831
378,0,48.736591,3.913695,24.454557,17.481264,43.665894,50.732574,-26.657446,72.751266,54.559654,-144.142212,163.717667,38.774601
379,0,48.729767,3.907715,24.454586,17.466984,43.675343,50.727436,-26.652615,72.758392,54.569420,-144.137909,163.715759,38.771458
380,0,48.668560,3.914422,24.433624,17.465286,43.697590,50.729195,-26.672693,72.766228,54.574501,-144.153336,163.728577,38.800591
381,0,48.727524,3.914192,24.445738,17.483372,43.682129,50.714672,-26.668903,72.752380,54.577583,-144.189926,163.686417,38.793648
382,0,48.733051,3.915856,24.468868,17.464899,43.698540,50.691544,-26.680510,72.772385,54.604931,-144.226440,163.720245,38.799034
383,0,48.728321,3.916245,24.454128,17.469456,43.683712,50.705250,-26.709227,72.775253,54.589905,-144.244736,163.657211,38.795570
384,0,48.736160,3.930904,24.452967,17.473700,43.685314,50.739513,-26.697813,72.764900,54.626732,-144.274216,163.630936,38.798134
385,0,48.698635,3.918312,24.453440,17.476715,43.683308,50.743767,-26.721401,72.807503,54.651596,-144.323837,163.659760,38.883621
386,0,48.749626,3.936118,24.437168,17.474913,43.661648,50.764202,-26.767696,72.848976,54.648693,-144.336456,163.592926,38.866550
387,0,48.753445,3.941679,24.452923,17.488539,43.681900,50.777439,-26.820091,72.851479,54.662052,-144.361069,163.598938,38.936306
388,0,48.772938,3.941396,24.450600,17.489901,43.680893,50.776424,-26.847912,72.862671,54.676086,-144.322128,163.567169,38.944740
389,0,48.776794,3.920158,24.462223,17.520102,43.666119,50.789619,-26.571381,72.634918,54.715984,-144.365387,163.548035,38.944313
390,0,48.795513,3.895004,24.446905,17.497362,43.646431,50.777233,-26.619211,72.608437,54.738716,-144.339203,163.491257,38.942173
391,0,48.772926,3.903404,24.458227,17.494993,43.622616,50.811050,-26.615936,72.582016,54.725922,-144.357346,163.480927,38.944107
392,0,48.780125,3.894397,24.454685,17.500608,43.629135,50.780548,-26.602482,72.575874,54.715660,-144.372589,163.424957,38.938602
393,0,48.795826,3.873242,24.437704,17.491524,43.635872,50.796524,-26.585938,72.520050,54.725601,-144.385376,163.444550,38.999477
394,0,48.821381,3.870721,24.436069,17.515873,43.617966,50.812492,-26.571926,72.517693,54.769051,-144.377930,163.454987,39.020691
395,0,48.814209,3.885790,24.436954,17.493242,43.622746,50.810673,-26.588430,72.562981,54.743626,-144.364685,163.461533,39.078724
396,0,48.840694,3.894012,24.437548,17.535313,43.642441,50.798679,-26.586475,72.575691,54.747246,-144.356720,163.464523,39.066551
397,0,48.844227,3.895664,24.443554,17.578737,43.667953,50.775894,-26.531403,72.593575,54.760216,-144.346436,163.527374,39.112522
398,0,48.845093,3.892271,24.429743,17.576294,43.695930,50.790943,-26.520695,72.600456,54.765804,-144.324432,163.529129,39.151299
399,0,48.799740,3.900790,24.426298,17.618338,43.694553,50.798412,-26.459196,72.615166,54.799118,-144.264969,163.587387,39.211864
400,0,48.854435,3.906999,24.429010,17.661156,43.689236,50.800224,-26.439880,72.620773,54.819576,-144.237183,163.612839,39.225128
401,0,48.834324,3.908596,24.444384,17.822702,43.578621,50.813381,-26.424898,72.642227,54.821049,-144.203827,163.648849,39.244621
402,0,48.882137,3.918700,24.428667,17.828520,43.555214,50.834015,-26.398558,72.649681,54.819477,-144.190735,163.701767,39.295174
403,0,48.852905,3.920212,24.444118,17.832502,43.601360,50.831711,-26.387011,72.656136,54.818943,-144.163040,163.670715,39.301868
404,0,48.867031,3.889687,24.438580,17.681425,43.701046,50.801212,-26.381729,72.687469,54.808792,-144.153946,163.695999,39.304344
405,0,48.853050,3.874161,24.453852,17.702579,43.692120,50.794121,-26.361298,72.659431,54.806408,-144.120956,163.699158,39.316807
406,0,48.857590,3.875471,24.453632,17.749588,43.625103,50.828728,-26.376812,72.699493,54.805729,-144.118713,163.699783,39.318645
407,0,48.845009,3.896842,24.435629,17.702026,43.655586,50.816879,-26.360157,72.700401,54.817123,-144.121002,163.778473,39.322868
408,0,48.847740,3.888834,24.429651,17.662378,43.693680,50.806240,-26.363686,72.716644,54.815632,-144.117279,163.776947,39.364204
409,0,48.800171,3.883378,24.439264,17.633707,43.708771,50.802361,-26.383438,72.709328,54.794163,-144.115891,163.772232,39.337357
410,0,48.814327,3.871303,24.451792,17.636650,43.673981,50.811123,-26.413744,72.671379,54.829571,-144.177475,163.746475,39.362057
411,0,48.806091,3.872919,24.452534,17.571861,43.704166,50.837383,-26.423138,72.678925,54.826138,-144.152695,163.737350,39.426502
412,0,48.812206,3.874912,24.447800,17.632359,43.661194,50.829460,-26.431406,72.658539,54.855358,-144.155807,163.708786,39.436535
413,0,48.818058,3.870515,24.452784,17.632275,43.661171,50.829815,-26.447441,72.646667,54.857231,-144.171097,163.737274,39.451359
414,0,48.820457,3.871902,24.449938,17.610514,43.692703,50.832027,-26.421272,72.636276,54.865940,-144.166687,163.709518,39.444145
415,0,48.770889,3.885904,24.436548,17.620602,43.669819,50.858433,-26.406710,72.629646,54.866360,-144.154861,163.689606,39.476181
416,0,48.832901,3.884517,24.443745,17.634180,43.646725,50.832527,-26.403860,72.634384,54.897469,-144.164780,163.647797,39.451202
417,0,48.794880,3.883114,24.427980,17.678776,43.643806,50.854500,-26.395155,72.612289,54.889545,-144.165802,163.657715,39.458881
418,0,48.863811,3.878392,24.434788,17.662230,43.640503,50.852085,-26.399052,72.614670,54.899052,-144.154572,163.648163,39.445732
419,0,48.888813,3.906604,24.442495,17.712101,43.662022,50.860325,-26.375931,72.630753,54.952618,-144.131439,163.645309,39.469257
420,0,48.890747,3.900079,24.451796,17.696659,43.660873,50.872810,-26.374949,72.630241,54.952785,-144.141357,163.624527,39.487713
421,0,48.890079,3.906099,24.442184,17.705267,43.642155,50.882771,-26.369959,72.625267,54.960415,-144.155960,163.635818,39.503250
422,0,48.845802,3.911335,24.441854,17.702604,43.644772,50.880733,-26.369520,72.625351,54.960529,-144.150284,163.633240,39.465221
423,0,48.877060,3.899058,24.448250,17.691851,43.663074,50.881958,-26.375568,72.631226,54.952606,-144.160095,163.626526,39.464787
424,0,48.876007,3.899974,24.446865,17.675810,43.644592,50.863228,-26.399721,72.625412,54.936352,-144.121414,163.620316,39.461170
425,0,48.840088,3.880339,24.458527,17.655897,43.625813,50.863293,-26.399582,72.625130,54.935883,-144.188797,163.626877,39.462749
426,0,48.819420,3.880508,24.450169,17.649607,43.622513,50.859982,-26.447729,72.608154,54.913036,-144.182724,163.596085,39.403870
427,0,48.810040,3.877530,24.432552,17.637371,43.649097,50.845974,-26.456430,72.627533,54.866188,-144.207489,163.626083,39.394920
428,0,48.764832,3.901596,24.439079,17.630825,43.653629,50.818752,-26.453962,72.626961,54.895451,-144.206070,163.624268,39.393021
429,0,48.818356,3.896472,24.444998,17.630451,43.654453,50.818531,-26.442455,72.632996,54.900024,-144.219681,163.609360,39.358620
430,0,48.818043,3.895938,24.445761,17.633440,43.650257,50.822857,-26.442965,72.633186,54.900055,-144.193970,163.675781,39.386478
431,0,48.806770,3.895152,24.452068,17.634693,43.650486,50.822250,-26.459858,72.649345,54.890839,-144.234695,163.631958,39.370640
432,0,48.767723,3.903752,24.446531,17.646017,43.651844,50.849358,-26.462351,72.611237,54.888908,-144.179153,163.644928,39.378025
433,0,48.820480,3.896155,24.446524,17.657928,43.628284,50.865925,-26.431465,72.651863,54.925858,-144.158813,163.651184,39.423824
434,0,48.832893,3.881205,24.451332,17.666779,43.622936,50.851086,-26.434502,72.647324,54.894920,-144.174057,163.658279,39.415825
435,0,48.826500,3.893624,24.441490,17.659187,43.655464,50.843273,-26.432976,72.636635,54.879089,-144.189514,163.658951,39.392727
436,0,48.846291,3.882877,24.440615,17.658928,43.667522,50.819759,-26.437778,72.655998,54.861023,-144.187500,163.642838,39.362656
437,0,48.821800,3.878053,24.443504,17.676588,43.644760,50.821526,-26.440264,72.656265,54.861649,-144.199921,163.721573,39.350349
438,0,48.828854,3.893969,24.453535,17.643990,43.680668,50.850243,-26.440744,72.656555,54.862347,-144.175903,163.694168,39.356079
439,0,48.820328,3.888745,24.455833,17.651474,43.676559,50.834530,-26.419733,72.672646,54.849796,-144.123016,163.680939,39.325661
440,0,48.826473,3.908082,24.448835,17.615183,43.704414,50.812229,-26.434381,72.679207,54.840473,-144.134521,163.734573,39.326363
441,0,48.833874,3.896216,24.448143,17.617542,43.711189,50.811958,-26.437843,72.695580,54.839188,-144.157089,163.765442,39.300961
442,0,48.835152,3.906401,24.448645,17.640985,43.701836,50.824379,-26.443039,72.703285,54.817924,-144.112854,163.744675,39.271431
443,0,48.832523,3.910724,24.442013,17.617764,43.740147,50.810383,-26.440367,72.702965,54.813141,-144.096313,163.725861,39.224178
444,0,48.817455,3.905844,24.450569,17.636789,43.740162,50.810745,-26.432096,72.702682,54.785473,-144.124619,163.756073,39.191772
445,0,48.815964,3.906939,24.445904,17.632933,43.743908,50.807041,-26.456421,72.699326,54.774033,-144.124680,163.748657,39.166851
446,0,48.865009,3.939631,24.446817,17.647068,43.759895,50.786072,-26.428595,72.709465,54.747429,-144.099503,163.790894,39.149048
447,0,48.874275,3.785790,24.577633,17.716524,43.733219,50.832775,-26.414948,72.741692,54.761433,-144.070862,163.791916,39.131382
448,0,48.874050,3.937143,24.451376,17.675900,43.805340,50.789501,-26.407747,72.741287,54.730278,-144.060837,163.813461,39.109043
449,0,48.873615,3.938002,24.446438,17.683983,43.746643,50.764038,-26.376925,72.762215,54.735485,-144.042587,163.796219,39.067852
450,0,48.873760,3.945539,24.440718,17.664267,43.762657,50.783707,-26.380671,72.772980,54.722591,-144.043243,163.796463,39.069420
451,0,48.874382,3.938410,24.451777,17.667088,43.764538,50.778534,-26.395838,72.758286,54.717159,-144.074463,163.803909,39.050949
452,0,48.867664,3.934691,24.451359,17.657610,43.786705,50.751896,-26.411797,72.759949,54.692455,-144.075897,163.804764,39.050816
453,0,48.856319,3.926466,24.444324,17.641464,43.809391,50.762428,-26.414322,72.748970,54.684658,-144.066833,163.782440,38.998013
454,0,48.798763,3.930643,24.440170,17.623470,43.783943,50.749435,-26.421541,72.754379,54.697105,-144.098038,163.794952,38.957897
455,0,48.835575,3.925748,24.441935,17.615915,43.830078,50.730316,-26.444839,72.782097,54.666985,-144.105896,163.803223,38.949745
456,0,48.802971,3.924967,24.452032,17.613554,43.808086,50.738430,-26.475927,72.781006,54.652798,-144.119324,163.758957,38.893444
457,0,48.837738,3.925616,24.442694,17.614786,43.831448,50.731625,-26.481184,72.780235,54.654869,-144.119507,163.763718,38.870182
458,0,48.837700,3.918361,24.452198,17.609192,43.817150,50.725956,-26.465162,72.777008,54.655689,-144.101288,163.741714,38.858131
459,0,48.843784,3.939253,24.461748,17.627150,43.826668,50.701847,-26.470501,72.779495,54.622391,-144.137024,163.694519,38.806835
460,0,48.811871,3.945683,24.463926,17.623623,43.816292,50.699486,-26.472464,72.789673,54.609676,-144.148621,163.697235,38.786190
461,0,48.809124,3.941268,24.464415,17.625046,43.853065,50.694096,-26.470175,72.788963,54.587921,-144.154236,163.688629,38.753639
462,0,48.830132,3.943348,24.469097,17.628845,43.823032,50.691322,-26.449913,72.768120,54.599285,-144.123734,163.697739,38.773712
463,0,48.808922,3.917784,24.459686,17.628141,43.838707,50.680767,-26.474070,72.745308,54.609409,-144.191788,163.666992,38.778774
464,0,48.825096,3.945862,24.432383,17.622797,43.797512,50.684395,-26.478146,72.756104,54.597057,-144.173706,163.671555,38.829674
465,0,48.770550,3.973833,24.457733,17.610905,43.832207,50.663597,-26.490828,72.766861,54.603302,-144.181274,163.689209,38.821640
466,0,48.739880,3.977884,24.456322,17.602179,43.834408,50.699398,-26.496290,72.768776,54.617844,-144.242081,163.677780,38.794697
467,0,48.767487,3.974136,24.465633,17.601301,43.846748,50.676563,-26.488670,72.762932,54.603344,-144.275543,163.682327,38.815525
468,0,48.771580,3.970341,24.471926,17.598869,43.848732,50.684654,-26.487465,72.762909,54.632179,-144.261612,163.708755,38.815758
469,0,48.753040,3.971123,24.444326,17.587557,43.854755,50.706108,-26.516386,72.812172,54.646221,-144.265808,163.703308,38.770802
470,0,48.713879,3.978515,24.439829,17.574350,43.871040,50.715561,-26.487467,72.823730,54.630573,-144.262253,163.690964,38.756401
471,0,48.791512,4.000220,24.449011,17.577093,43.863197,50.701813,-26.513275,72.829796,54.620052,-144.266891,163.707275,38.771709
472,0,48.742821,3.992878,24.451559,17.588518,43.880020,50.714249,-26.490200,72.786140,54.621902,-144.274704,163.673920,38.659744
473,0,48.750008,3.988563,24.467623,17.580450,43.858154,50.721817,-26.514826,72.804115,54.590504,-144.287796,163.645432,38.656258
474,0,48.784515,3.986902,24.468193,17.576710,43.839962,50.713093,-26.534161,72.814926,54.603035,-144.284103,163.616257,38.647896
475,0,48.755123,3.992292,24.469034,17.578789,43.837353,50.712811,-26.529518,72.798630,54.605778,-144.319336,163.623123,38.633972
476,0,48.803719,3.985896,24.455761,17.578691,43.837929,50.712601,-26.536591,72.808578,54.571960,-144.314789,163.624573,38.629383
477,0,48.788433,3.990977,24.451464,17.573782,43.840679,50.721386,-26.546497,72.788399,54.615906,-144.305664,163.563660,38.626873
478,0,48.794151,3.988315,24.451303,17.600885,43.873726,50.718609,-26.507956,72.768150,54.596176,-144.335297,163.569611,38.627853
479,0,48.787556,3.992702,24.450987,17.596830,43.877838,50.727955,-26.540871,72.790588,54.603321,-144.334473,163.573471,38.629654
480,0,48.826820,3.980214,24.462618,17.639315,43.887497,50.696888,-26.535727,72.826416,54.602184,-144.316788,163.588913,38.649776
481,0,48.843697,3.969422,24.449858,17.621269,43.885494,50.716965,-26.466883,72.817368,54.626469,-144.352570,163.581787,38.656361
482,0,48.852299,3.985582,24.449135,17.636421,43.897469,50.715385,-26.481169,72.797836,54.634636,-144.338303,163.571930,38.631184
483,0,48.813694,4.000929,24.452612,17.644867,43.891777,50.698559,-26.463825,72.822975,54.620918,-144.328384,163.575043,38.646557
484,0,48.804703,4.003756,24.451197,17.639637,43.896118,50.684849,-26.471245,72.777657,54.624924,-144.340897,163.545227,38.640102
485,0,48.809132,3.978648,24.462809,17.616541,43.857433,50.722694,-26.507433,72.780540,54.641109,-144.350555,163.562637,38.671124
486,0,48.811546,4.000370,24.455208,17.584024,43.855030,50.725555,-26.518282,72.773743,54.637054,-144.386032,163.538483,38.671078
487,0,48.805592,3.983845,24.456852,17.628180,43.850769,50.698326,-26.535904,72.794670,54.596512,-144.349731,163.546616,38.658813
488,0,48.812065,3.977768,24.464155,17.591434,43.848434,50.665089,-26.532412,72.803413,54.579727,-144.376114,163.478378,38.586380
489,0,48.762688,3.992349,24.450657,17.562149,43.824791,50.688202,-26.563519,72.772827,54.551689,-144.426666,163.532028,38.580326
490,0,48.793018,3.979929,24.469236,17.552500,43.824642,50.661102,-26.596445,72.749428,54.553108,-144.442856,163.507019,38.614857
491,0,48.784901,3.996555,24.456131,17.550228,43.826698,50.669201,-26.581940,72.742119,54.609344,-144.423950,163.500351,38.617027
492,0,48.756802,4.022580,24.444202,17.561295,43.824986,50.687531,-26.578146,72.738777,54.604076,-144.476501,163.497192,38.646103
493,0,48.780270,4.018609,24.447186,17.582420,43.817684,50.703762,-26.594267,72.764725,54.593315,-144.492065,163.503464,38.629452
494,0,48.788284,4.012522,24.455933,17.591579,43.816746,50.708229,-26.605986,72.788673,54.611950,-144.489212,163.464508,38.614349
495,0,48.764011,4.016024,24.453743,17.561113,43.848927,50.696018,-26.561520,72.739738,54.654240,-144.494980,163.440643,38.638313
496,0,48.798374,3.994256,24.466942,17.599863,43.798447,50.725628,-26.597965,72.714432,54.647911,-144.497406,163.427261,38.652958
497,0,48.779819,3.996221,24.483555,17.553621,43.833611,50.747169,-26.594873,72.729103,54.671398,-144.542038,163.375458,38.656662
498,0,48.803360,3.978577,24.466780,17.571896,43.783291,50.733707,-26.627720,72.684135,54.654785,-144.553391,163.348251,38.624756
499,0,48.784565,3.998136,24.452608,17.579763,43.781780,50.741657,-26.623766,72.678452,54.667316,-144.526978,163.304352,38.629982
500,0,48.791916,3.978726,24.463030,17.551598,43.792034,50.747986,-26.640751,72.656822,54.645046,-144.530121,163.309219,38.633724
501,0,48.806114,3.976426,24.467869,17.584309,43.775173,50.755905,-26.653990,72.650650,54.667057,-144.565125,163.257339,38.634243
502,0,48.793419,4.000628,24.457108,17.594610,43.774178,50.768276,-26.641596,72.654877,54.661415,-144.549072,163.260269,38.647507
503,0,48.796207,3.986735,24.459732,17.594191,43.776100,50.769711,-26.641008,72.659233,54.631100,-144.588989,163.275879,38.660114
504,0,48.788162,3.998852,24.462576,17.606096,43.783665,50.800659,-26.608467,72.639114,54.656986,-144.581131,163.278442,38.656784
505,0,48.793831,3.994371,24.465807,17.605402,43.793598,50.794464,-26.621780,72.654434,54.637440,-144.568741,163.285049,38.713043
506,0,48.798119,3.978465,24.470915,17.579950,43.819702,50.786060,-26.657059,72.645622,54.636631,-144.625763,163.293884,38.749966
507,0,48.773788,3.995780,24.463678,17.613424,43.780540,50.787598,-26.647528,72.652672,54.642384,-144.624619,163.292892,38.747616
508,0,48.793755,3.991871,24.469172,17.618940,43.778278,50.795464,-26.615143,72.661644,54.660244,-144.625092,163.292023,38.746731
509,0,48.792610,4.001399,24.455782,17.596899,43.816738,50.809174,-26.640152,72.684898,54.643852,-144.628860,163.297913,38.756557
510,0,48.795429,3.998295,24.481474,17.604156,43.824234,50.813721,-26.612612,72.697586,54.663841,-144.656998,163.337204,38.778034
511,0,48.794281,3.992122,24.466791,17.571548,43.825710,50.790298,-26.613035,72.697472,54.663841,-144.628204,163.301437,38.758675
512,0,48.795795,3.993530,24.466928,17.595636,43.789906,50.788265,-26.607996,72.709412,54.662052,-144.630783,163.300980,38.758888
513,0,48.792603,3.993366,24.466555,17.609398,43.845901,50.800396,-26.637108,72.722244,54.643517,-144.630493,163.304565,38.760555
514,0,48.794247,4.014596,24.453688,17.611921,43.841595,50.799683,-26.624706,72.709587,54.646397,-144.608551,163.321945,38.775944
515,0,48.769142,4.017319,24.452692,17.636417,43.814182,50.803635,-26.634663,72.711060,54.630791,-144.624954,163.291428,38.747044
516,0,48.710514,4.005817,24.448555,17.619007,43.817661,50.771046,-26.632437,72.704117,54.601009,-144.628067,163.290909,38.719742
517,0,48.734402,4.005731,24.445230,17.610588,43.855106,50.778618,-26.620564,72.709160,54.590500,-144.611496,163.311798,38.739044
518,0,48.782890,4.023556,24.441507,17.577078,43.821423,50.766495,-26.640118,72.713631,54.588673,-144.645294,163.236221,38.698620
519,0,48.770317,4.001070,24.454874,17.589375,43.838982,50.792702,-26.660606,72.707779,54.594456,-144.641678,163.216492,38.680428
520,0,48.759075,4.015573,24.445971,17.602314,43.821877,50.790836,-26.645947,72.719040,54.581123,-144.643723,163.228683,38.691917
521,0,48.782631,4.014817,24.445278,17.583601,43.841759,50.786625,-26.649336,72.681496,54.578125,-144.641373,163.230515,38.720448
522,0,48.788113,3.999878,24.447151,17.608761,43.794720,50.771358,-26.643858,72.670654,54.621010,-144.658081,163.192963,38.680614
523,0,48.761745,4.005999,24.453131,17.596581,43.802700,50.808491,-26.652815,72.660873,54.633896,-144.690292,163.208649,38.689785
524,0,48.756695,4.021255,24.450960,17.629894,43.825203,50.802345,-26.662283,72.681061,54.614510,-144.681442,163.164490,38.666725
525,0,48.796814,4.015986,24.452724,17.631603,43.822166,50.803925,-26.659378,72.686630,54.612873,-144.662552,163.152542,38.611237
526,0,48.788017,4.033922,24.456263,17.637310,43.819511,50.811680,-26.632406,72.693314,54.585567,-144.673508,163.147247,38.638245
527,0,48.804634,4.021971,24.464960,17.636320,43.819729,50.809254,-26.634287,72.703049,54.595585,-144.694611,163.161835,38.641308
528,0,48.773232,4.025656,24.463886,17.634653,43.820122,50.808144,-26.629614,72.693298,54.614418,-144.654022,163.154404,38.665653
529,0,48.819870,4.020986,24.445507,17.627386,43.809780,50.781330,-26.626961,72.697739,54.643532,-144.696350,163.132111,38.691925
530,0,48.838898,3.997558,24.448011,17.638409,43.820393,50.778370,-26.627106,72.683899,54.654388,-144.661194,163.125412,38.691925
531,0,48.860676,3.987125,24.433537,17.662092,43.861141,50.814617,-26.583250,72.697449,54.683041,-144.625900,163.177902,38.779671
532,0,48.883316,3.981157,24.455667,17.712626,43.844872,50.840614,-26.561310,72.664673,54.728497,-144.591400,163.153687,38.800800
533,0,48.913269,3.993698,24.461824,17.743385,43.845909,50.874130,-26.510611,72.665253,54.727982,-144.544968,163.172150,38.798809
534,0,48.892624,3.976998,24.468300,17.765869,43.826508,50.850151,-26.510616,72.665596,54.728386,-144.540054,163.232269,38.882545
535,0,48.892788,3.985267,24.446947,17.750069,43.834923,50.797138,-26.480165,72.731110,54.695423,-144.495819,163.266708,38.853127
536,0,48.903774,3.982407,24.464258,17.785381,43.836178,50.807198,-26.468000,72.723549,54.688866,-144.484161,163.335815,38.898502
537,0,48.906071,3.987180,24.478300,17.799379,43.871361,50.798424,-26.463058,72.773773,54.671764,-144.405899,163.301788,38.850143
538,0,48.934147,4.001120,24.463890,17.778067,43.866085,50.747444,-26.434576,72.815735,54.635880,-144.313232,163.370743,38.779995
539,0,48.934429,3.995525,24.453848,17.789970,43.874912,50.736912,-26.402721,72.831314,54.592606,-144.331100,163.426117,38.779247
540,0,48.905178,4.023331,24.447411,17.774225,43.903744,50.739006,-26.395370,72.857300,54.572567,-144.260803,163.444473,38.719048
541,0,48.915550,4.031129,24.453020,17.734026,43.956059,50.690834,-26.412571,72.867348,54.555382,-144.243835,163.488464,38.704880
542,0,48.897060,4.039997,24.460855,17.758108,43.952896,50.678925,-26.406548,72.908997,54.526402,-144.258484,163.479263,38.654236
543,0,48.910767,4.030264,24.454117,17.780378,43.969696,50.681164,-26.400299,72.909431,54.509071,-144.235291,163.487579,38.619884
544,0,48.911118,4.029862,24.454601,17.799337,43.960968,50.684509,-26.391497,72.913040,54.526009,-144.217712,163.489838,38.584560
545,0,48.921253,4.028992,24.454720,17.775335,43.945614,50.671856,-26.401896,72.929230,54.527985,-144.242477,163.482895,38.599571
546,0,48.908958,4.018813,24.465134,17.762501,43.948841,50.678818,-26.416119,72.903793,54.490845,-144.262039,163.473648,38.493626
547,0,48.900932,3.991017,24.491791,17.753258,43.917061,50.687267,-26.446526,72.888443,54.470272,-144.229034,163.415573,38.483841
548,0,48.919746,4.013711,24.460678,17.747999,43.926178,50.647964,-26.422413,72.867661,54.473396,-144.267685,163.447067,38.465816
549,0,48.855537,4.003183,24.449963,17.717857,43.923557,50.630131,-26.453787,72.844887,54.427265,-144.259079,163.402390,38.385826
550,0,48.894505,3.990146,24.438837,17.669369,43.941238,50.619854,-26.486071,72.854431,54.386047,-144.291992,163.366699,38.335335
551,0,48.906586,4.005400,24.441601,17.642410,43.958794,50.602497,-26.497601,72.851418,54.356422,-144.304321,163.324905,38.245781
552,0,48.911301,4.017987,24.439945,17.647501,43.918659,50.594471,-26.514193,72.854607,54.334442,-144.315125,163.309494,38.220211
553,0,48.836769,3.984641,24.433960,17.627651,43.946751,50.595760,-26.526207,72.844337,54.314884,-144.313721,163.294846,38.180264
554,0,48.869389,3.990016,24.434023,17.584673,43.937698,50.557835,-26.557173,72.823029,54.292473,-144.297699,163.281204,38.114311
555,0,48.868870,3.990361,24.433310,17.612310,43.935898,50.556057,-26.542887,72.828003,54.286148,-144.352188,163.278030,38.145428
556,0,48.873138,4.006589,24.439754,17.596674,43.949482,50.543297,-26.572468,72.830498,54.289742,-144.342300,163.282104,38.150547
557,0,48.897869,3.857329,24.588083,17.613350,43.937080,50.555500,-26.545088,72.852226,54.313232,-144.309891,163.299408,38.151672
558,0,48.899895,4.031231,24.450459,17.630465,43.990349,50.521866,-26.553288,72.884644,54.290432,-144.314041,163.315506,38.148014
559,0,48.886108,4.011373,24.430653,17.633848,43.976570,50.536388,-26.527763,72.874687,54.298653,-144.308167,163.316406,38.163208
560,0,48.904816,4.022137,24.459848,17.679331,43.985664,50.540421,-26.526323,72.895454,54.276611,-144.295212,163.365280,38.147957
561,0,48.864742,4.025311,24.441322,17.673109,44.004662,50.534676,-26.519911,72.911919,54.258945,-144.300858,163.364059,38.149151
562,0,48.884804,4.024744,24.429701,17.657116,44.011112,50.533180,-26.512777,72.926140,54.251945,-144.310837,163.381607,38.102737
563,0,48.864697,4.037217,24.440123,17.637394,44.013542,50.521816,-26.518658,72.919739,54.239353,-144.308060,163.413330,38.082867
564,0,48.866234,4.020776,24.430950,17.633396,44.027554,50.506737,-26.534824,72.949310,54.250774,-144.297745,163.393997,38.050308
565,0,48.871235,4.020528,24.438322,17.608295,44.011303,50.473621,-26.552944,72.905182,54.202324,-144.316833,163.409943,38.061501
566,0,48.872810,4.017764,24.472240,17.606962,43.978889,50.488853,-26.549604,72.914627,54.196999,-144.272507,163.404663,38.025032
567,0,48.893055,4.017148,24.454947,17.584015,44.004311,50.498207,-26.555939,72.918060,54.180264,-144.297150,163.383301,38.018978
568,0,48.807449,4.058006,24.452730,17.564238,43.998695,50.478065,-26.566662,72.943367,54.165466,-144.338287,163.381241,37.956669
569,0,48.793106,4.024501,24.441103,17.532837,44.020126,50.479832,-26.605526,72.907829,54.153717,-144.345047,163.382187,37.943531
570,0,48.836651,4.057678,24.437881,17.506516,43.989262,50.456329,-26.605400,72.919342,54.121841,-144.336685,163.341980,37.920197
571,0,48.826290,3.886708,24.566803,17.481392,44.001293,50.476139,-26.638319,72.914986,54.089485,-144.359146,163.345444,37.903084
572,0,48.799206,3.880221,24.535608,17.465952,43.981613,50.441490,-26.652693,72.931213,54.083748,-144.388321,163.312042,37.867413
573,0,48.792690,4.039576,24.402159,17.421125,44.012913,50.411915,-26.678703,72.904686,54.085632,-144.450668,163.289032,37.798389
574,0,48.795898,3.871726,24.543604,17.468807,43.971252,50.454044,-26.706553,72.886925,54.082790,-144.450577,163.305695,37.810631
575,0,48.794785,3.884281,24.540203,17.463221,43.989975,50.449982,-26.664108,72.893219,54.070236,-144.411911,163.280334,37.820034
576,0,48.796444,3.871306,24.553650,17.464739,43.990417,50.451511,-26.658508,72.904388,54.061562,-144.440948,163.301056,37.886665
577,0,48.788666,4.043493,24.401903,17.450142,44.001942,50.419212,-26.656214,72.913933,54.076725,-144.465729,163.335327,37.885418
578,0,48.832371,3.867485,24.545414,17.525259,43.971924,50.440662,-26.661081,72.931953,54.049892,-144.484924,163.348740,37.904308
579,0,48.841293,3.855894,24.527821,17.517550,43.956711,50.463417,-26.634117,72.929977,54.080090,-144.464615,163.322235,37.986748
580,0,48.896523,3.836882,24.535362,17.618393,43.928406,50.560539,-26.608519,72.910110,54.166649,-144.423981,163.347778,38.108215
581,0,48.993790,3.924393,24.401215,17.761543,43.857506,50.622932,-26.489223,72.865089,54.372673,-144.391052,163.411636,38.466827
582,0,49.106838,3.822471,24.369398,18.051245,43.727432,50.894657,-26.229580,72.815208,54.812649,-144.305542,163.568207,39.212578
583,0,49.306782,3.656644,24.358646,18.460739,43.557976,51.245380,-25.757736,72.728813,55.454369,-144.194122,163.875885,40.240631
584,0,49.565525,3.451826,24.377583,19.062111,43.318886,51.832294,-25.053619,72.699333,56.461147,-143.899643,164.372101,41.831722
585,0,49.749004,3.293737,24.420437,19.842661,43.040222,52.672058,-24.115463,72.863770,58.042095,-143.419327,165.105255,43.607285
586,0,49.582493,3.288842,24.558186,20.851965,42.824921,53.857651,-22.879562,73.504768,60.504936,-142.469727,166.210983,45.700619
587,0,49.368988,3.613794,24.565815,22.184790,43.051537,55.551205,-20.978703,74.902908,63.715153,-141.195862,167.441986,47.802052
588,0,48.939320,4.560091,24.753466,23.986547,43.746265,57.725899,-18.297091,77.103188,67.707832,-139.539139,168.978577,50.079491
589,0,49.362095,6.263439,25.907238,26.258432,44.972496,60.750549,-15.012510,79.965462,72.347206,-137.576859,170.493729,52.470451
590,0,50.890102,8.954456,28.796232,29.128239,47.124695,65.002502,-11.678802,83.248253,77.400566,-134.917923,171.541626,54.821152
591,0,54.628521,12.276491,34.179657,32.373306,50.166504,70.539398,-8.419950,86.367798,82.896881,-132.384064,173.294785,57.674950
592,0,59.907841,15.908116,41.708794,36.336056,54.145576,77.196030,-5.480894,89.478676,88.268120,-129.614471,175.162231,60.771881
593,0,65.940872,20.382586,50.158459,40.601238,58.467400,84.685501,-2.679050,92.448143,94.012489,-126.384941,176.245071,63.683884
594,0,72.083282,24.849514,58.947697,44.896812,62.807865,92.457779,0.253818,95.302162,100.000610,-123.063713,178.767502,67.642822
595,0,78.055038,29.264231,67.336876,49.207207,66.917259,100.319450,3.653531,98.352524,106.083412,-119.204895,180.516312,71.453941
596,0,83.864647,33.765659,75.158073,53.758713,70.935524,107.871475,7.645072,101.660492,112.323395,-114.920921,181.765610,75.171936
597,0,89.857574,38.366451,82.521683,58.800613,75.038483,115.053223,12.177197,105.306389,118.658821,-110.361931,183.787857,79.356735
598,0,96.169937,43.212692,89.578079,64.325554,79.394218,121.884514,17.311150,109.270813,125.046791,-105.596504,186.060394,83.625702
599,0,102.891289,48.381706,96.498360,70.309395,84.089005,128.563065,22.829426,113.421257,131.303802,-100.259895,189.164032,88.255722
600,0,110.186661,53.743355,103.488190,76.622429,88.986595,135.098633,28.684620,117.567642,137.381790,-95.042076,190.980591,92.438492
601,0,117.823898,59.172005,110.335220,83.186195,93.796913,141.510513,34.720467,121.531639,143.136475,-89.382492,193.409836,96.861244
602,0,125.751884,64.472031,116.980484,89.935966,98.539116,147.544678,40.875252,125.274483,148.564865,-83.566307,196.015884,101.341835
603,0,133.620010,69.498924,123.027481,96.854362,102.949036,153.226181,47.322319,128.835861,153.653992,-77.308189,198.013733,105.522667
604,0,141.544571,74.420799,128.306473,103.950760,107.073990,158.364731,54.074947,132.167908,158.334991,-70.933113,200.187164,109.650597
605,0,149.646240,79.245232,132.803925,111.338608,111.043831,162.906830,61.065617,135.280182,162.634781,-64.340530,202.182373,113.737869
606,0,157.945465,84.110771,136.469376,118.942810,114.899628,166.805176,68.346550,138.643936,166.689331,-57.575401,204.125397,117.652557
607,0,166.406021,88.985992,139.496033,126.901924,118.675201,170.155121,75.841133,141.613586,170.234421,-50.793327,206.033493,121.481766
608,0,174.988953,93.954269,141.945145,134.948334,122.427895,172.981262,83.460526,144.350037,173.372589,-44.034470,207.759399,125.269440
609,0,183.586578,98.800804,143.913559,143.013809,126.011925,175.414871,91.134308,146.898224,176.208481,-37.416286,209.426987,129.000961
610,0,192.172684,103.902367,145.642105,151.022064,129.585052,177.480606,98.690704,149.239655,178.786743,-31.039120,210.984467,132.498459
611,0,200.343918,108.571159,147.165634,158.824112,133.048233,179.333069,106.121735,151.517715,181.148605,-24.727242,212.512573,135.804977
612,0,208.069748,112.879501,148.641571,166.351013,136.329407,181.139725,113.237762,153.788757,183.368378,-18.607826,214.055481,138.912811
613,0,215.368576,116.446556,150.177551,173.404800,139.424515,182.911102,120.096672,156.054474,185.404663,-12.430904,215.566956,141.616211
614,0,222.335236,119.741821,151.705688,180.283539,142.167007,184.628311,126.734985,158.276215,187.205353,-6.267200,216.989868,144.032211
615,0,228.992737,122.545174,153.080170,186.750397,144.440063,186.158661,133.171341,160.326294,188.811340,-0.347309,218.652939,146.110855
616,0,235.333923,124.594925,154.291718,193.104507,146.412766,187.428040,139.514114,162.242233,190.065918,6.070188,219.857712,147.845062
617,0,241.546417,126.320992,155.038467,199.380112,148.046066,188.361221,145.874756,164.065811,190.976349,12.247300,221.170212,149.341156
618,0,247.863541,127.850563,155.352875,205.623947,149.492172,188.739624,152.227844,165.628937,191.500885,18.418152,222.261780,150.669769
619,0,254.035767,129.455276,154.918777,211.942581,150.750900,188.558899,158.577545,166.942871,191.594360,24.267710,223.177292,151.929718
620,0,260.336182,131.303696,153.809357,218.211777,152.027817,187.802048,164.882126,167.936249,191.307556,29.954393,223.873093,153.025620
621,0,266.589355,133.217300,152.243835,224.516922,153.345871,186.656067,171.089874,168.755157,190.738754,35.331543,224.360062,153.977417
622,0,272.732697,135.527527,150.049118,230.812958,154.753616,185.076126,177.241455,169.558167,189.929443,40.328957,224.808502,154.845505
623,0,278.681641,137.548233,147.780960,236.975021,156.243423,183.259644,183.237350,170.342545,188.860336,45.532425,225.062073,155.242340
624,0,284.387726,139.224548,145.509003,242.929184,157.528641,181.380371,189.153656,171.169876,187.659363,50.422630,225.419708,155.554703
625,0,289.789337,140.512772,143.222107,248.553177,158.603806,179.486954,194.808334,171.959213,186.311096,55.550316,225.642197,155.504745
626,0,294.945496,141.446838,140.944870,253.994019,159.480377,177.530640,200.245438,172.678192,184.821884,60.493038,225.971848,155.167191
627,0,300.024292,142.085892,138.592087,259.173615,160.126938,175.443420,205.563400,173.273895,183.074539,65.312546,226.274841,154.674988
628,0,304.758179,142.634308,135.723587,264.243225,160.608475,173.065384,210.633850,173.742752,181.075684,70.288338,226.443542,153.832718
629,0,309.431244,143.019440,132.847443,269.189453,160.901886,170.422440,215.664398,174.066376,178.821396,74.857628,226.599319,152.911713
630,0,313.933044,143.690491,129.335770,273.953278,161.125168,167.373199,220.544495,174.105743,176.325851,79.525864,226.414597,151.748123
631,0,318.234711,144.361832,125.466507,278.607544,161.261551,164.088165,225.141434,173.905411,173.638123,83.813766,226.003769,150.579117
632,0,322.321320,144.838379,121.492653,283.011536,161.360062,160.559479,229.567261,173.675522,170.822067,87.440392,225.787735,149.508606
633,0,326.189484,145.344467,117.484787,287.145905,161.404953,156.989487,233.805298,173.409698,167.868866,91.062477,225.457535,148.193497
634,0,329.735321,145.552322,113.608383,291.081970,161.410965,153.548325,237.710556,173.145981,164.900024,94.819221,225.036118,146.559250
635,0,333.149994,145.520615,110.084999,294.716217,161.317062,150.197830,241.372025,172.985641,161.927856,97.857277,225.029739,145.158676
636,0,336.363312,145.313354,106.720467,298.117859,161.113968,147.030441,244.798996,172.830887,159.059555,101.508255,224.663803,143.134964
637,0,339.299225,144.992950,103.268379,301.378113,160.870987,143.869507,248.120712,172.662033,156.263123,104.798233,224.574371,141.154221
638,0,342.108429,144.554184,99.767975,304.486298,160.579590,140.681976,251.589539,172.423126,153.352600,108.025650,224.503052,139.128052
639,0,344.719604,143.900238,96.204178,307.627655,160.280396,137.321899,254.720535,172.221924,150.437134,111.178596,224.414886,136.991577
640,0,347.494751,143.574799,92.387367,310.598053,159.976929,133.888443,257.859955,172.117188,147.360870,114.334908,224.238205,134.773605
641,0,350.015808,143.185913,88.344185,313.500641,159.658279,130.209534,260.988342,172.021439,144.111877,116.962082,224.242828,132.705368
642,0,352.386932,143.073013,84.000198,316.397095,159.462296,126.338272,264.071106,171.850998,140.768265,120.231926,223.820221,130.312805
643,0,354.826904,143.213348,79.602074,319.238708,159.358109,122.307739,267.067261,171.467789,137.258347,122.610382,223.737000,128.351852
644,0,357.078827,143.479004,75.085358,321.936035,159.280365,118.193184,269.758636,170.983505,133.757263,125.171944,223.360840,126.113998
645,0,359.025452,143.694061,70.579132,324.391785,159.225998,114.161568,272.377136,170.346466,130.321259,127.588821,223.050262,123.776505
646,0,360.723511,143.759125,66.134216,326.600616,159.117111,110.204826,274.696747,169.879837,126.974762,130.375153,222.625565,121.107895
647,0,361.905029,143.513702,61.753857,328.456116,158.813705,106.357803,276.795074,169.371597,123.768600,132.080414,222.801163,118.906235
648,0,362.400818,142.922958,57.469296,329.933502,158.322693,102.654099,278.385376,168.897919,120.850853,134.153809,222.838242,116.313820
649,0,362.200928,141.948288,52.978680,330.988861,157.564697,99.129356,279.753845,168.430252,118.178581,135.871613,222.997482,113.703453
650,0,360.920166,140.719391,48.070778,331.681580,156.520996,95.742943,280.716003,167.949738,115.722221,137.457092,223.094955,111.000923
651,0,358.348816,139.420273,42.535099,331.928040,155.185516,92.476685,281.396973,167.470932,113.675095,138.778580,223.356567,108.212746
652,0,357.358551,137.751999,39.532108,331.814728,153.687363,90.337151,281.634521,167.010406,111.840355,139.730331,223.632538,105.508797
653,0,357.153900,136.692032,39.045143,331.379730,152.593658,90.620422,281.286133,167.083908,110.260010,140.904999,223.841156,102.565430
654,0,357.029541,135.881897,38.649113,330.854858,152.166412,90.444527,280.963165,167.566727,109.136238,141.466125,224.304169,100.178192
655,0,356.852203,135.099518,38.338978,330.748413,152.329056,89.993507,280.819305,168.485672,108.390160,141.515213,225.082642,98.313972
656,0,356.773132,134.779739,38.131588,330.792206,152.793549,89.666374,280.705078,169.330475,107.808914,142.228760,225.429062,96.376137
657,0,356.787964,134.729401,37.936447,330.903473,153.353607,89.369682,280.667267,170.112579,107.379951,141.912704,226.385971,95.475975
658,0,356.841614,134.797592,37.666946,331.061981,153.974106,89.013863,280.763092,170.813370,107.143959,142.385010,226.705399,94.263069
659,0,356.869568,134.634674,37.649452,331.315033,154.488907,88.780571,281.008606,171.562195,107.181442,142.534637,227.457870,93.799431
660,0,357.019409,134.249023,38.007256,331.455780,154.787399,88.726006,281.279755,172.120453,107.357994,143.235748,227.843552,93.049431
661,0,357.284332,134.044525,38.315563,331.579803,154.823456,88.735268,281.581940,172.433594,107.662964,143.443863,228.564285,93.224747
662,0,357.706207,134.248978,38.749592,331.890015,155.009018,88.925293,281.920349,172.606049,108.224297,143.711075,228.847565,93.390968
663,0,358.143707,134.221725,39.901939,332.078064,155.431610,89.544540,282.006958,172.720963,109.058121,144.217346,228.636734,93.494873
664,0,358.458588,134.288910,41.433765,332.088074,155.543533,90.774467,281.761749,172.720856,110.212791,144.093979,228.922379,94.379738
665,0,358.618469,134.846085,43.239433,331.758118,155.467926,92.505531,281.306549,172.496536,111.755241,144.219589,228.696518,94.951210
666,0,358.420868,135.181702,45.741951,331.259552,155.757492,94.774529,280.656555,172.716461,113.829674,143.635284,229.036285,96.335533
667,0,357.859131,135.325653,48.812283,330.558167,156.263794,97.557808,279.808105,173.066391,116.337753,143.116898,229.088318,97.558647
668,0,356.895599,135.416611,52.315243,329.509277,156.722961,100.813324,278.541962,173.425995,119.297859,142.629990,229.326859,98.968292
669,0,355.525787,135.350494,56.158554,327.965302,157.142883,104.425507,276.868866,173.835403,122.581444,141.163895,229.906982,100.903580
670,0,353.787872,135.172485,60.117992,326.056946,157.524658,108.317612,274.779419,174.148804,126.109673,138.993286,230.706894,103.359024
671,0,351.311768,135.226868,64.265045,323.638519,157.652771,112.344635,272.293396,174.347290,129.842056,137.007828,231.034439,105.449409
672,0,348.539886,135.076996,68.587433,320.763702,157.738754,116.570007,269.247620,174.423721,133.645706,134.316696,231.541016,107.783646
673,0,345.355042,134.892883,73.084427,317.338287,157.745316,120.855194,265.687103,174.570435,137.497742,131.040802,232.042923,110.108727
674,0,341.313904,134.431503,77.836151,313.282776,157.655075,125.177353,261.538422,174.786606,141.285706,127.350807,232.656921,112.346642
675,0,337.287231,134.074249,82.619019,308.703674,157.546783,129.528000,256.888031,175.112030,144.988831,122.950645,233.403076,114.504219
676,0,332.463898,133.569855,87.227699,303.723846,157.546600,133.654419,251.767929,175.545807,148.449066,118.530151,234.122925,116.257477
677,0,327.480621,133.231186,91.581123,298.430237,157.742767,137.475342,246.309204,176.164566,151.702560,113.375786,234.936035,117.919739
678,0,321.938660,132.794403,95.571297,292.570007,157.964355,141.044052,240.344040,176.824020,154.630142,107.848106,236.069794,119.502274
679,0,315.763580,132.406067,99.020973,286.388184,158.535568,144.042419,234.401505,177.428040,157.163757,102.483238,236.911270,120.412979
680,0,309.626801,132.445770,101.770195,279.959534,159.064896,146.526550,228.161270,178.060486,159.311951,96.630104,237.912537,121.296364
681,0,303.188599,132.154282,104.214127,273.412201,159.403824,148.563248,221.667450,178.756424,161.019852,90.506882,239.022446,121.915718
682,0,296.296844,132.394226,106.061287,266.739441,159.859451,150.224686,214.970810,179.519150,162.291046,84.112991,240.092117,122.217377
683,0,289.804535,132.847610,107.548904,259.905060,160.581909,151.481461,208.140961,180.477005,163.198837,77.694427,241.161530,122.089645
684,0,283.051147,133.478455,108.647148,253.018982,161.612473,152.263947,201.287735,181.605011,163.658279,71.041222,242.320450,121.739807
685,0,276.345795,134.287537,109.222435,246.275940,162.777237,152.576218,194.535522,182.884567,163.726364,64.287979,243.505798,121.055542
686,0,269.716248,134.821915,109.333054,239.446457,164.043198,152.370911,187.797882,184.193527,163.320801,57.580250,244.726044,120.158836
687,0,263.199280,135.645370,108.743828,233.000381,165.120819,151.711456,181.235321,185.394608,162.569458,50.956192,246.006699,118.993370
688,0,256.246155,136.167542,107.774483,226.601486,166.130493,150.500534,174.889694,186.492157,161.391113,44.461452,247.189362,117.796021
689,0,249.765518,137.101868,106.045914,220.296677,167.007477,148.931671,168.606705,187.493362,159.904770,38.140877,248.364120,116.410263
690,0,243.597412,137.931458,103.977959,214.121765,167.866486,146.957031,162.549469,188.365143,158.164032,31.973713,249.402969,114.950104
691,0,237.388550,138.722290,101.690353,208.127258,168.693939,144.737427,156.549622,189.220291,156.174515,25.795288,250.364807,113.369148
692,0,231.494019,139.580688,99.254364,202.314636,169.557144,142.426575,150.768723,190.078232,154.054321,19.872192,251.186813,111.682816
693,0,225.851257,140.564209,96.667450,196.722900,170.450699,139.998291,145.201981,190.930420,151.858627,14.064258,252.121872,109.979729
694,0,220.345795,141.609680,93.893402,191.473633,171.391403,137.479202,139.860062,191.758377,149.568375,8.164610,253.096939,108.341042
695,0,214.996811,142.631973,90.918892,186.470581,172.289139,134.786560,134.799423,192.518555,147.270172,2.947589,253.653915,106.648148
696,0,209.683380,143.414749,87.923660,181.738983,173.129013,132.031860,130.010605,193.139893,144.979034,-2.130920,254.232712,105.006058
697,0,204.870590,144.661804,84.844795,177.110947,173.897461,129.454697,125.346062,193.642502,142.764847,-6.959362,254.768051,103.472351
698,0,200.471130,145.554871,82.151154,172.672714,174.587967,126.977417,120.864754,194.158081,140.574387,-11.671716,255.205872,101.901108
699,0,195.969360,146.525085,79.629776,168.352829,175.306046,124.750992,116.507149,194.644012,138.489227,-16.211725,255.561447,100.453026
700,0,191.828949,147.452515,77.374588,164.339081,176.001068,122.653358,112.412613,195.052826,136.580627,-20.544989,255.910934,99.080704
701,0,188.257614,148.546768,75.221840,160.543579,176.572098,120.793892,108.567398,195.463730,134.842545,-24.571636,256.156372,97.795731
702,0,184.644440,149.170547,73.606712,157.013428,177.175400,119.169052,104.963806,195.944214,133.239990,-28.478859,256.501740,96.737366
703,0,181.595917,149.971268,72.158157,153.716721,177.801376,117.785179,101.698685,196.518860,131.796234,-32.072803,256.816193,95.684433
704,0,178.575241,150.696976,70.947357,150.695419,178.527512,116.508537,98.624634,197.185028,130.489136,-35.153858,256.859802,94.506104
705,0,175.855896,151.514359,69.948837,147.854263,179.307693,115.439011,95.782753,197.953476,129.329590,-38.177067,257.202698,93.550560
706,0,173.388626,152.236450,69.173561,145.315292,180.228806,114.514236,93.200966,198.807587,128.373352,-40.932873,257.507477,92.655167
707,0,171.100449,152.878525,68.625320,142.960785,181.172745,113.712532,90.880676,199.657730,127.515587,-43.516556,257.758789,91.806625
708,0,169.096115,153.825089,68.085724,140.711395,182.114395,113.070511,88.591499,200.429733,126.798706,-45.927383,257.995667,91.069016
709,0,166.983795,154.477386,67.721184,138.682434,182.940933,112.489227,86.547653,201.023941,126.166565,-48.181091,258.107208,90.420540
710,0,165.372711,155.224075,67.275604,136.747681,183.495499,112.000839,84.511673,201.456421,125.657471,-50.313171,258.184052,89.939789
711,0,163.625687,155.732391,66.855965,134.886505,183.870987,111.542992,82.616096,201.683807,125.206131,-52.450340,258.218323,89.538116
712,0,162.053986,155.867767,66.628967,133.182068,184.061356,111.190178,80.804070,201.849014,124.831306,-54.245571,258.133362,89.165764
713,0,160.439484,156.010452,66.460091,131.517166,184.175354,110.925285,79.155899,201.921295,124.481316,-56.015507,258.033234,88.824951
714,0,158.977936,156.036514,66.386024,129.975006,184.229111,110.711700,77.619766,202.020645,124.228325,-57.446976,257.912628,88.406235
715,0,157.440216,155.951538,66.305450,128.491318,184.298660,110.488327,76.191040,202.195496,123.932976,-58.955212,257.913696,88.131454
716,0,156.202972,155.810059,66.108261,127.177330,184.363998,110.193077,74.981293,202.224838,123.584320,-60.168049,257.875793,87.805351
717,0,154.987534,155.440536,65.832718,125.994621,184.256882,109.798523,73.798264,202.219589,123.202690,-61.276638,257.711823,87.423416
718,0,153.824463,155.237518,65.362061,124.871529,184.045380,109.308487,72.694420,202.083145,122.764847,-62.519833,257.630524,87.169342
719,0,152.451187,154.702179,64.873138,123.857819,183.712280,108.757011,71.696815,201.772064,122.299919,-63.401669,257.440460,86.832184
720,0,151.551956,154.614609,63.945381,122.818550,183.319214,108.080544,70.749146,201.393387,121.767021,-64.398094,257.234222,86.572723
721,0,150.567154,154.686874,62.847858,121.929222,182.952789,107.302246,69.848999,201.061157,121.150696,-65.510956,257.159424,86.434250
722,0,149.647827,154.567047,61.686466,121.086021,182.636703,106.383659,69.058083,200.602875,120.447670,-66.571075,257.051483,86.267944
723,0,148.706497,154.864319,60.254009,120.349998,182.387054,105.396347,68.272881,200.247391,119.652809,-67.293205,256.661682,85.769920
724,0,147.954453,155.258499,58.790737,119.598656,182.277267,104.292328,67.608177,199.874527,118.732460,-68.095390,256.275330,85.237976
725,0,147.134872,155.824448,57.162067,118.886047,182.233490,103.076958,66.883934,199.555466,117.773781,-69.024597,256.148743,84.733658
726,0,146.450089,156.445709,55.437572,118.246552,182.355972,101.684639,66.123421,199.347198,116.637306,-69.905411,256.017975,84.167885
727,0,145.624954,157.159302,53.520596,117.594925,182.592178,100.220726,65.453339,199.278259,115.486847,-70.855705,255.953247,83.466667
728,0,144.859299,157.882675,51.590961,117.006966,182.883759,98.612305,64.871353,199.337448,114.210846,-71.721565,256.085999,82.872345
729,0,144.105408,158.739243,49.536106,116.403847,183.243118,96.918259,64.294548,199.442230,112.780739,-72.599228,256.219696,82.050621
730,0,143.341537,159.725754,47.449493,115.848305,183.742188,95.107430,63.742294,199.597870,111.277824,-73.375572,256.426086,81.197487
731,0,143.040756,161.101776,45.175484,115.417198,184.478867,93.228096,63.265114,199.862610,109.698090,-74.103851,256.616180,80.138603
732,0,142.561188,162.646912,42.734814,115.045654,185.359955,91.125603,62.870003,200.310471,107.931107,-74.860001,256.804840,79.131958
733,0,142.097321,164.244934,40.017357,114.759415,186.484131,88.806854,62.614902,200.815811,105.957962,-75.573814,257.037354,78.044250
734,0,141.616180,165.972900,37.098293,114.557823,187.666367,86.064629,62.443821,201.502411,103.826950,-76.257721,257.348389,76.929077
735,0,141.926163,167.834946,35.477470,114.584961,189.390991,84.241005,62.218269,202.596558,102.028450,-77.190132,257.835602,75.884308
736,0,141.370544,168.571335,35.601276,114.144470,192.060638,83.779228,61.577358,204.563965,101.111275,-77.612267,258.292999,74.458427
737,0,140.282257,169.051025,35.260090,113.356148,193.609558,83.312241,60.901443,206.220444,100.658211,-78.212921,259.168854,73.522728
738,0,139.241714,169.661011,34.976345,112.552086,194.407181,83.153107,60.078003,207.208527,100.421745,-78.878769,260.194946,72.940735
739,0,138.200714,170.173965,34.840389,111.552742,194.953812,83.091560,59.089024,207.833878,100.378242,-79.744843,260.986115,72.695496
740,0,137.076904,170.726822,34.735012,110.695374,195.367783,83.232773,58.242985,208.203339,100.543106,-80.646172,261.466339,72.556038
741,0,136.015823,171.266510,34.646919,109.888206,195.743759,83.417381,57.446827,208.620422,100.817368,-81.653427,261.825409,72.625595
742,0,135.034225,171.698624,34.604954,109.180550,196.109192,83.552399,56.780037,208.955414,101.036682,-82.337982,261.962250,72.731247
743,0,134.201477,172.144470,34.435680,108.592728,196.413330,83.547791,56.167046,209.184143,101.191116,-83.805153,262.959137,73.150864
744,0,133.526886,172.372147,34.352829,108.042557,196.686676,83.473137,55.625824,209.375900,101.278336,-84.123741,263.059967,73.092751
745,0,133.008774,172.406647,34.269989,107.537727,196.759659,83.411064,55.150272,209.423813,101.349991,-84.623901,263.368988,73.192711
746,0,132.569366,172.363052,34.211266,107.073944,196.642517,83.336411,54.723572,209.426224,101.382072,-84.939484,263.660736,73.297783
747,0,132.128494,172.259125,34.004143,106.629021,196.418274,83.147705,54.332481,209.300552,101.425438,-85.319427,263.914886,73.513962
748,0,131.803299,172.158035,33.653622,106.321167,196.115692,82.711014,54.016048,209.130905,101.420326,-85.658371,264.133362,73.780342
749,0,131.267258,172.067032,32.766937,106.073883,195.720734,81.864952,53.940300,208.884491,101.318916,-85.988190,264.261719,74.111961
750,0,131.098846,172.065781,31.987049,106.005272,195.272354,80.894669,54.014416,208.662979,101.077469,-86.455711,264.504791,74.669930
751,0,131.266708,172.297089,31.340919,105.906876,194.992584,80.061264,54.075546,208.419479,100.801720,-86.763870,264.448456,74.970474
752,0,131.429367,172.580170,30.788170,105.961311,194.846558,79.275826,54.138855,208.140259,100.531906,-86.975838,264.453003,75.265678
753,0,131.614273,172.739502,30.335695,105.979103,194.659393,78.493744,54.237461,207.859116,100.189903,-87.029816,264.351135,75.469070
754,0,131.885010,172.907166,30.035128,105.948570,194.332779,77.887589,54.333622,207.511536,99.909058,-87.183983,264.268463,75.760155
755,0,132.246048,173.094070,30.114674,105.819702,194.003983,77.551254,54.300533,207.152771,99.750038,-87.269974,263.954437,76.053497
756,0,132.594467,173.298767,30.398581,105.629913,193.630493,77.274910,54.190796,206.871185,99.688820,-87.683556,263.794403,76.543266
757,0,133.041122,173.506744,30.819921,105.357262,193.205643,76.964836,54.044014,206.444000,99.672722,-88.194923,263.617615,77.150330
758,0,133.461594,173.743729,31.235785,105.007599,192.695145,76.612564,53.822510,205.913849,99.593170,-88.848953,263.290741,77.855530
759,0,134.033279,174.010559,31.774994,104.623718,192.181564,76.283615,53.497223,205.133926,99.358047,-89.845367,262.960632,78.661934
760,0,134.859009,174.345871,32.799217,104.215675,191.676788,76.095497,53.014355,204.174728,98.987228,-90.528923,262.169403,79.245033
761,0,135.751968,174.814117,34.226856,103.811295,191.477936,76.263321,52.574585,203.611633,98.841888,-91.445518,261.379883,79.830032
762,0,136.648666,175.322372,36.339470,103.484238,191.590179,76.962517,52.097099,203.405243,99.003372,-92.428696,260.743103,80.357170
763,0,137.661316,175.931046,39.496147,103.026009,191.981277,78.491310,51.501049,203.446289,99.647530,-93.651382,260.555237,81.160774
764,0,138.821350,176.652451,43.691631,102.429535,192.498840,80.809341,50.722481,203.641342,100.609215,-94.483406,260.119141,81.608063
765,0,139.593903,177.432236,48.312096,101.662155,193.220963,83.679245,49.638519,203.855133,101.922989,-95.414207,259.795502,82.150391
766,0,139.997543,178.082153,53.092964,100.737961,194.095016,86.896309,48.500725,204.080429,103.654938,-96.896797,259.776428,83.128075
767,0,139.995941,178.474670,57.967083,99.650322,194.359909,90.396629,47.179581,204.183258,105.746353,-97.969666,259.204895,83.696884
768,0,139.655258,178.542252,62.915245,98.264915,194.361008,94.184509,45.543373,204.102585,108.078621,-99.272202,258.603668,84.443069
769,0,138.947739,178.216995,68.093437,96.659882,194.042343,98.189743,43.698494,203.801575,110.672958,-100.834846,258.002625,85.369621
770,0,137.980225,177.458847,73.475571,94.840904,193.446182,102.465500,41.665909,203.229706,113.380623,-102.297050,257.215454,86.277390
771,0,136.649582,176.281296,78.893539,92.858406,192.444931,106.912315,39.460308,202.356842,116.143532,-103.849457,256.327240,87.169975
772,0,135.163788,174.537064,84.202019,90.639999,191.104385,111.360092,37.085278,201.173111,118.982491,-105.260925,255.213654,88.085075
773,0,133.317169,172.298645,89.270355,88.218597,189.268585,115.684959,34.644394,199.645370,121.809410,-106.877136,254.157303,88.960510
774,0,131.170441,169.461929,94.074707,85.702179,187.031601,119.952904,32.046734,197.764236,124.604126,-108.359604,252.871368,89.770561
775,0,128.809143,165.995804,98.518280,83.011566,184.263947,123.862251,29.424328,195.469452,127.355156,-109.901398,251.406372,90.536255
776,0,126.262146,161.624008,102.735786,80.314766,180.779144,127.543671,26.816393,192.886841,129.905350,-111.180199,249.552429,91.152931
777,0,123.441048,156.762024,106.519951,77.512695,176.819336,130.781769,24.211189,189.958069,132.243652,-112.607948,247.588043,91.693764
778,0,120.579559,151.529587,109.867920,74.613914,172.684204,133.589584,21.616051,186.671127,134.226151,-113.910439,245.326675,92.119911
779,0,117.574524,145.599976,112.925713,71.745026,167.893143,136.033295,19.095221,182.873383,135.817429,-115.178062,242.852737,92.500076
780,0,114.410973,139.124191,115.423698,68.903404,162.652618,138.001846,16.612146,178.681900,137.079330,-116.403389,240.124100,92.705666
781,0,111.289139,132.373825,117.384453,66.033676,157.036911,139.560440,14.208858,174.167313,138.043915,-117.718445,237.283890,92.869064
782,0,108.055702,125.338318,118.858040,63.295700,151.162994,140.747055,11.845440,169.438339,138.726151,-118.883446,234.222916,92.872322
783,0,104.781319,118.124413,119.953087,60.479607,145.095154,141.579102,9.619043,164.537033,139.166687,-120.058640,231.068893,92.786469
784,0,101.611794,110.841789,120.716675,57.774452,138.882874,142.144196,7.423079,159.512955,139.342850,-121.069542,227.769470,92.475525
785,0,98.423759,103.632027,121.128914,55.048084,132.620819,142.368011,5.308490,154.404312,139.311203,-121.995834,224.392105,92.107666
786,0,95.353706,96.515167,121.343346,52.436298,126.545593,142.449326,3.242903,149.086105,138.981705,-122.883034,221.037155,91.676048
787,0,92.454880,89.580925,121.178467,49.974384,120.444351,142.272659,1.311740,143.821991,138.441788,-123.593498,218.068924,91.166443
788,0,89.619774,82.685593,120.792732,47.603474,114.377815,141.764648,-0.607087,138.807068,137.767288,-124.193451,215.361725,90.725815
789,0,86.904160,75.960808,120.000519,45.426117,108.426125,140.933243,-2.361809,133.697113,136.838715,-125.166550,212.279510,90.163635
790,0,84.223694,69.206673,118.720879,43.434841,102.485649,139.770477,-3.870818,128.612152,135.646408,-125.127274,206.367172,88.269707
791,0,81.587326,62.508011,117.052917,41.518642,96.508293,138.213654,-5.213065,123.607475,134.255569,-125.717995,203.508987,87.527634
792,0,79.105759,55.948486,114.922142,39.677109,90.620102,136.395615,-6.435963,118.695503,132.726944,-126.438614,202.021057,87.412560
793,0,76.695320,49.800793,112.438675,37.996735,84.935791,134.330917,-7.520770,113.928253,131.061172,-126.451508,196.936798,85.623451
794,0,74.544769,44.036419,109.753349,36.444145,79.592079,132.078140,-8.624812,109.251633,129.287338,-126.943367,193.966431,84.789856
795,0,72.519264,38.712734,106.985909,35.019135,74.591484,129.772049,-9.724613,104.735191,127.439720,-127.460197,190.925919,83.901436
796,0,70.578300,33.750511,104.212730,33.642567,69.911034,127.477821,-10.828390,100.456413,125.599426,-128.073059,188.097961,82.996536
797,0,68.662743,29.126543,101.559654,32.254086,65.537086,125.197533,-11.971533,96.517448,123.786430,-128.621017,185.453796,81.997864
798,0,66.687424,24.903433,99.112038,30.850798,61.698944,123.094719,-13.068286,92.927109,122.043839,-129.224106,182.969772,81.001266
799,0,64.888840,21.057547,96.868507,29.491913,58.133987,121.111633,-14.197245,89.760963,120.328934,-130.019699,182.426636,80.751991
800,0,63.041515,17.610706,94.770302,28.187399,54.994831,119.230606,-15.300990,86.882454,118.605995,-130.589325,180.145142,79.466072
801,0,61.479385,14.505685,92.791939,26.876766,52.202068,117.383095,-16.378237,84.298889,116.845940,-131.202606,177.979568,78.138664
802,0,59.990772,11.766036,90.754410,25.683445,49.650478,115.501717,-17.427275,81.933105,114.980698,-131.659546,174.781677,76.196327
803,0,58.628284,9.202593,88.570602,24.566458,47.388287,113.424622,-18.395830,79.816673,112.996208,-132.344421,173.240509,74.882668
804,0,57.278976,6.881495,86.144806,23.567902,45.268604,111.151138,-19.227757,77.853683,110.847214,-133.215942,172.728500,73.855659
805,0,56.146507,4.808093,83.361534,22.737234,43.322292,108.556213,-19.931541,76.077484,108.522423,-133.887909,171.280899,72.414635
806,0,55.163788,3.092658,80.139778,22.047562,41.630051,105.751854,-20.464224,74.498016,106.122894,-134.199432,168.971695,70.652290
807,0,54.355446,1.745626,76.697906,21.510389,40.221031,102.709976,-20.832020,73.092926,103.575958,-135.083389,169.341888,69.798149
808,0,53.841820,0.734118,73.123695,21.240158,39.133049,99.523285,-21.146982,71.937767,100.898941,-135.649780,167.887268,67.984909
809,0,53.525463,0.072273,69.416321,21.119020,38.353199,96.203156,-21.474619,70.938477,97.935165,-136.279419,167.567566,66.686905
810,0,53.322773,-0.332946,65.514938,21.125805,37.867012,92.672279,-21.488321,70.247177,94.881111,-136.705109,166.299164,64.787544
811,0,53.296829,-0.508343,61.375458,21.211195,37.624126,88.876205,-21.560560,69.783028,91.741699,-137.229492,165.499115,63.048668
812,0,53.292728,-0.457604,56.877304,21.410124,37.465523,84.808517,-21.353733,69.410576,88.371254,-137.622940,165.539398,61.607864
813,0,53.410580,-0.253760,52.071671,21.644632,37.402306,80.540031,-21.215628,69.022644,84.893364,-138.119064,165.150040,59.839806
814,0,53.339874,0.055844,47.092155,21.905352,37.346786,76.131393,-21.179558,68.705620,81.223244,-138.981186,164.890564,58.100368
815,0,53.133949,0.324708,41.753376,22.038525,37.278286,71.565811,-21.119282,68.473343,77.386673,-139.190384,164.478699,56.254158
816,0,52.785755,0.549047,36.293644,21.981812,37.337154,66.665802,-21.057772,68.170708,73.492851,-139.926544,164.335724,54.328899
817,0,52.277077,0.879014,30.387274,21.915127,37.361362,61.590485,-21.044420,67.975540,69.513275,-140.343323,164.214706,52.417255
818,0,51.494850,1.145883,24.925549,21.799984,37.318100,56.403633,-21.090372,67.888809,65.477707,-140.679443,164.177689,50.528564
819,0,51.568260,0.538941,24.889956,21.128948,38.121391,54.312641,-21.681549,67.959465,61.916004,-141.054382,164.253677,48.478439
820,0,50.903519,1.013067,24.908630,19.408939,38.791992,53.549839,-23.447308,68.465446,59.443378,-141.431381,164.426834,46.418613
821,0,50.130589,1.699515,24.926472,18.135172,39.381203,52.807343,-24.998276,69.368607,57.793224,-141.959015,164.724045,44.523186
822,0,49.297626,2.271094,24.848747,17.507551,40.457417,52.055542,-25.772772,70.476685,56.649345,-143.043640,164.850342,42.635605
823,0,48.646080,2.924795,24.738194,17.195322,41.405018,51.435619,-26.108377,71.596474,56.000652,-143.697266,165.113007,41.620422
824,0,48.217899,3.264887,24.594482,16.897554,41.897038,51.065010,-26.344141,72.372604,55.710854,-144.197540,165.334106,41.040966
825,0,47.820709,3.114011,24.633329,16.476427,41.855549,50.973667,-26.611935,72.529320,55.616070,-144.661331,165.777512,40.840946
826,0,47.665909,3.045489,24.532488,16.225197,41.690609,50.996403,-26.796431,72.370712,55.732147,-144.662628,165.453461,40.898907
827,0,47.695900,3.011753,24.502619,16.280117,41.543564,51.138096,-26.841635,72.069733,55.943657,-144.481232,165.051590,41.080521
828,0,47.960999,2.962559,24.497786,16.640162,41.527973,51.283051,-26.706907,71.909309,56.258739,-144.319122,164.713486,41.359501
829,0,48.262569,2.870755,24.522243,17.031796,41.473583,51.457619,-26.375809,71.782394,56.630375,-144.022354,164.428223,41.599251
830,0,48.547234,2.730262,24.570366,17.336014,41.323017,51.599377,-26.018023,71.673370,56.949478,-143.664658,164.155258,41.784729
831,0,48.808208,2.589463,24.630278,17.649799,41.220970,51.794044,-25.699942,71.591621,57.198246,-143.182266,164.028061,41.986046
832,0,49.084949,2.612717,24.531155,17.930164,41.234715,51.798584,-25.385954,71.517502,57.390305,-142.673294,163.823792,42.054882
833,0,49.313698,2.547796,24.616585,18.184725,41.234257,51.920067,-25.151836,71.456451,57.570595,-142.334045,163.776901,42.177071
834,0,49.295147,2.640739,24.646065,18.386927,41.246029,52.009861,-24.987539,71.462608,57.703434,-142.074860,163.751801,42.275513
835,0,49.369171,2.684659,24.688238,18.512171,41.276722,52.069740,-24.853302,71.481148,57.767605,-141.873520,163.716568,42.398621
836,0,49.405159,2.741142,24.704556,18.556568,41.399719,52.115643,-24.811352,71.536156,57.779465,-141.757828,163.758911,42.510296
837,0,49.422165,2.823055,24.686769,18.463060,41.558815,52.038727,-24.862171,71.613419,57.703194,-141.723526,163.880875,42.556095
838,0,49.408527,2.895262,24.688219,18.394266,41.750816,51.974003,-24.925035,71.664162,57.557236,-141.757416,164.009109,42.598129
839,0,49.289215,2.993511,24.642155,18.286755,41.842735,51.900578,-25.068594,71.766403,57.356091,-141.815292,164.119934,42.542519
840,0,49.186836,3.058715,24.607933,18.173519,41.877140,51.783089,-25.280577,71.816742,57.126194,-141.900742,164.167007,42.428974
841,0,49.057259,3.109854,24.566833,18.008694,41.906902,51.618633,-25.522591,71.849754,56.844376,-142.061874,164.174164,42.251553
842,0,48.905128,3.156380,24.540329,17.846291,41.964260,51.483425,-25.694523,71.880402,56.568314,-142.229401,164.207550,42.059303
843,0,48.757271,3.182875,24.522232,17.610264,42.007286,51.381516,-25.919250,71.915878,56.286510,-142.433777,164.139465,41.800072
844,0,48.612831,3.217201,24.488810,17.348450,42.012310,51.274284,-26.170408,71.872154,56.019810,-142.609177,164.026474,41.585522
845,0,48.468754,3.232520,24.462942,17.108614,42.033478,51.142014,-26.458912,71.871597,55.793762,-142.835312,163.924362,41.353474
846,0,48.350571,3.238786,24.494534,16.964958,42.034878,50.977810,-26.663567,71.786819,55.620575,-143.049240,163.746567,41.162922
847,0,48.295536,3.293823,24.479670,16.874027,42.095421,50.784840,-26.889442,71.730598,55.420784,-143.230621,163.613007,40.881248
848,0,48.318863,3.353470,24.495880,16.812265,42.107792,50.720852,-26.997944,71.699600,55.319847,-143.424286,163.417160,40.713116
849,0,48.338017,3.428693,24.520103,16.743505,42.164761,50.710003,-27.109526,71.688019,55.235386,-143.582352,163.239044,40.583698
850,0,48.371929,3.505700,24.525574,16.624073,42.256336,50.724434,-27.158468,71.640388,55.190453,-143.723694,163.075500,40.421608
851,0,48.439945,3.562371,24.577906,16.690310,42.339020,50.711449,-27.178015,71.637260,55.131538,-143.857513,162.953964,40.320866
852,0,48.503273,3.598209,24.590853,16.707441,42.430271,50.688576,-27.189373,71.655510,55.120739,-143.902145,162.818466,40.207973
853,0,48.567253,3.671487,24.586357,16.807674,42.487160,50.700951,-27.160519,71.739761,55.084366,-143.971695,162.642319,40.029774
854,0,48.631714,3.739736,24.614374,16.893957,42.544857,50.681164,-27.147495,71.783058,54.981087,-144.038177,162.564743,39.923271
855,0,48.651154,3.729131,24.627333,16.942907,42.618824,50.627861,-27.122644,71.772453,54.933060,-144.102051,162.479599,39.823315
856,0,48.642315,3.750992,24.620567,16.934992,42.645565,50.546608,-27.147202,71.778595,54.870483,-144.132538,162.339798,39.629959
857,0,48.627697,3.731612,24.616146,16.872356,42.647137,50.515289,-27.239532,71.757996,54.763252,-144.197128,162.264709,39.535942
858,0,48.568878,3.757368,24.619865,16.730391,42.651218,50.512295,-27.365547,71.757408,54.658005,-144.276993,162.143295,39.421852
859,0,48.519241,3.755351,24.596256,16.657722,42.613113,50.406101,-27.449997,71.706558,54.560242,-144.349075,162.074768,39.361973
860,0,48.440754,3.782521,24.611977,16.579140,42.671715,50.397781,-27.544079,71.685944,54.497131,-144.468521,161.981964,39.299744
861,0,48.400383,3.830710,24.605162,16.400974,42.728291,50.334091,-27.622503,71.704796,54.420712,-144.542267,161.945801,39.246567
862,0,48.376495,3.847804,24.578974,16.532864,42.671555,50.238144,-27.724964,71.713928,54.339748,-144.610596,161.976746,39.250103
863,0,48.378426,3.865827,24.581739,16.436611,42.704685,50.222961,-27.787066,71.672066,54.316528,-144.702240,161.934967,39.223049
864,0,48.353249,3.911101,24.596853,16.416534,42.716221,50.188675,-27.803577,71.684486,54.294689,-144.693909,161.972336,39.272217
865,0,48.351524,3.923669,24.594456,16.278913,42.815365,50.195702,-27.825357,71.697845,54.278114,-144.694031,162.001938,39.368504
866,0,48.365028,3.909715,24.610676,16.357027,42.856598,50.211128,-27.756334,71.751442,54.295776,-144.574677,162.062210,39.441479
867,0,48.439220,3.962787,24.614786,16.444445,42.889458,50.199608,-27.690281,71.797226,54.311668,-144.539093,162.129883,39.496864
868,0,48.442337,3.963647,24.609741,16.550079,42.911823,50.194965,-27.610420,71.854980,54.328651,-144.435852,162.188782,39.579872
869,0,48.503422,4.002640,24.615906,16.589443,42.944881,50.193790,-27.513857,71.894608,54.308022,-144.359711,162.250641,39.655338
870,0,48.528252,3.974720,24.643349,16.677324,42.975925,50.187744,-27.443697,71.943535,54.341240,-144.278397,162.357361,39.729057
871,0,48.516663,3.984594,24.651989,16.733597,43.029514,50.189865,-27.365799,72.021126,54.348743,-144.192764,162.400864,39.792297
872,0,48.511524,3.989079,24.637909,16.738110,43.025688,50.194557,-27.320856,72.044189,54.351170,-144.154007,162.426575,39.836533
873,0,48.514446,4.021798,24.606915,16.772305,43.050682,50.167923,-27.301065,72.089951,54.337223,-144.124069,162.496490,39.880871
874,0,48.502293,4.051108,24.592335,16.774099,43.100220,50.155956,-27.314028,72.112022,54.307617,-144.163147,162.509476,39.985619
875,0,48.508663,4.056983,24.604488,16.777927,43.136127,50.142799,-27.298742,72.150108,54.338478,-144.181747,162.531403,40.035851
876,0,48.488235,4.119621,24.618383,16.781717,43.161194,50.123714,-27.322330,72.188210,54.320431,-144.196030,162.559830,40.057339
877,0,48.479599,4.130844,24.623560,16.819036,43.214588,50.112915,-27.301041,72.223656,54.341827,-144.180145,162.582733,40.101444
878,0,48.465725,4.151549,24.630953,16.820477,43.210999,50.118034,-27.290941,72.229218,54.333290,-144.226944,162.558441,40.146023
879,0,48.514050,4.179272,24.650942,16.840282,43.229195,50.114952,-27.280132,72.237541,54.361603,-144.224548,162.559952,40.144012
880,0,48.499420,4.170799,24.662842,16.847403,43.239178,50.120132,-27.249399,72.230179,54.342278,-144.273651,162.578888,40.189198
881,0,48.511707,4.161411,24.640808,16.828453,43.246666,50.101017,-27.243452,72.243027,54.375828,-144.271561,162.512863,40.190418
882,0,48.492165,4.153209,24.654278,16.837723,43.209808,50.082912,-27.259531,72.236458,54.361118,-144.227127,162.470032,40.167423
883,0,48.512714,4.107494,24.617693,16.836464,43.205208,50.110462,-27.255154,72.205963,54.332382,-144.223862,162.440842,40.212246
884,0,48.514004,4.134614,24.609499,16.847389,43.220692,50.079193,-27.274088,72.204712,54.277908,-144.246155,162.392883,40.228764
885,0,48.518822,4.117321,24.609671,16.856426,43.234333,50.098778,-27.272551,72.183571,54.310024,-144.300064,162.351379,40.237263
886,0,48.523197,4.121190,24.633116,16.862850,43.226700,50.058075,-27.258163,72.185425,54.279228,-144.301834,162.366516,40.275856
887,0,48.527267,4.150873,24.609995,16.894442,43.244133,50.055946,-27.256495,72.203857,54.266350,-144.306122,162.303085,40.240788
888,0,48.578941,4.175153,24.642338,16.948107,43.314587,50.059551,-27.241598,72.234703,54.307194,-144.300323,162.336746,40.275917
889,0,48.619984,4.219345,24.639591,16.999739,43.349052,50.065174,-27.114950,72.256699,54.307739,-144.254227,162.364014,40.293575
890,0,48.649204,4.215673,24.622101,17.068142,43.395588,50.055565,-27.060879,72.350075,54.323601,-144.234406,162.377380,40.318768
891,0,48.667618,4.243392,24.617260,17.125179,43.460346,50.045700,-26.989014,72.417633,54.268215,-144.149643,162.412689,40.314804
892,0,48.748020,4.275493,24.635551,17.205019,43.530857,50.001606,-26.948694,72.501709,54.220200,-144.082260,162.432495,40.305115
893,0,48.767750,4.292607,24.636189,17.291512,43.579929,49.983509,-26.853151,72.576729,54.236076,-144.030457,162.461380,40.305630
894,0,48.779770,4.291970,24.634745,17.325480,43.607655,49.984982,-26.803652,72.582977,54.223854,-144.021881,162.486740,40.309128
895,0,48.776894,4.299511,24.623812,17.316607,43.631752,49.994896,-26.793243,72.570961,54.228050,-144.044342,162.500092,40.333153
896,0,48.794262,4.288762,24.635504,17.295210,43.579712,49.983997,-26.805042,72.516815,54.231220,-144.026093,162.426788,40.304436
897,0,48.771095,4.274362,24.636818,17.307259,43.555088,50.000584,-26.832405,72.485313,54.237930,-144.054825,162.450012,40.383621
898,0,48.768562,4.276794,24.635784,17.247044,43.525364,50.024586,-26.890234,72.473495,54.278870,-144.053864,162.383530,40.392181
899,0,48.705338,4.238842,24.627979,17.180058,43.451149,50.032795,-26.937521,72.437660,54.301903,-144.080887,162.375275,40.429798
900,0,48.693703,4.235856,24.613087,17.164009,43.459431,50.044945,-26.977160,72.434814,54.285763,-144.136658,162.368683,40.405537
901,0,48.706257,4.258080,24.607693,17.156445,43.462273,50.030468,-26.963484,72.438850,54.261559,-144.120087,162.398773,40.377892
902,0,48.677189,4.265049,24.613567,17.136364,43.486355,50.022888,-26.987423,72.444984,54.261116,-144.182373,162.350479,40.340626
903,0,48.671432,4.291983,24.634222,17.145252,43.480000,50.021923,-26.999216,72.444489,54.251274,-144.181152,162.346115,40.359715
904,0,48.689060,4.294256,24.636528,17.140560,43.527084,50.012394,-26.968025,72.489571,54.247398,-144.175156,162.377762,40.304050
905,0,48.695236,4.307564,24.626528,17.160065,43.555511,49.988815,-26.964851,72.500374,54.210163,-144.160049,162.367828,40.268253
906,0,48.681206,4.331395,24.633135,17.217690,43.587330,49.981167,-26.953096,72.542877,54.203434,-144.176163,162.358337,40.226734
907,0,48.713123,4.361067,24.638641,17.192410,43.597736,49.981236,-26.929180,72.551094,54.192451,-144.171173,162.355011,40.222500
908,0,48.703392,4.323380,24.655386,17.204760,43.603500,49.967751,-26.949793,72.542351,54.188885,-144.191544,162.328918,40.177349
909,0,48.723713,4.352624,24.625822,17.193739,43.581379,49.961098,-26.947552,72.513168,54.162880,-144.179535,162.271301,40.137043
910,0,48.723366,4.322847,24.645102,17.179684,43.581177,49.953777,-26.966152,72.492058,54.127392,-144.250854,162.258011,40.086243
