Trajectories
100
,,Y_Hara_Hand:forearm,,,Y_Hara_Hand:mp,,,Y_Hara_Hand:PIP,,,Y_Hara_Hand:DIP,,,
Frame,Sub Frame,X,Y,Z,X,Y,Z,X,Y,Z,X,Y,Z
,,mm,mm,mm,mm,mm,mm,mm,mm,mm,mm,mm,mm
1,0,50.701363,24.823185,24.081722,22.128231,64.548485,54.406399,-23.956160,92.954514,61.023796,-145.924210,177.109421,39.376804
2,0,50.694012,24.824501,24.096207,22.118382,64.557144,54.392117,-23.980112,92.989632,61.006634,-145.894043,177.101013,39.346676
3,0,50.675865,24.821424,24.077946,22.119539,64.559502,54.408516,-23.995035,92.968819,61.000961,-145.942337,177.105133,39.320229
4,0,50.697254,24.801720,24.082769,22.099613,64.541183,54.396263,-23.985355,92.948997,60.987457,-145.910751,177.070969,39.314793
5,0,50.714962,24.808378,24.060497,22.116297,64.525902,54.380173,-23.967842,92.905067,60.991394,-145.919159,177.029785,39.307293
6,0,50.701862,24.790474,24.077976,22.100153,64.514992,54.436119,-23.968245,92.939995,61.028877,-145.921494,177.018799,39.327702
7,0,50.712780,24.781025,24.069136,22.102545,64.499519,54.441700,-23.984653,92.900757,61.020439,-145.887680,177.036697,39.363434
8,0,50.720139,24.790211,24.061380,22.101374,64.498924,54.445034,-23.947128,92.897774,61.041016,-145.862656,176.992081,39.386448
9,0,50.702835,24.780807,24.067287,22.151230,64.493340,54.443771,-23.932524,92.903458,61.054882,-145.850616,177.016922,39.362080
10,0,50.705631,24.773510,24.075916,22.124414,64.502899,54.413158,-23.931812,92.942314,61.032005,-145.854645,177.014297,39.288151
11,0,50.712688,24.798103,24.040600,22.126110,64.510513,54.416565,-23.938478,92.951302,61.010334,-145.779221,176.954254,39.284893
12,0,50.710842,24.772831,24.056116,22.165232,64.515930,54.405712,-23.904455,92.956451,61.030312,-145.854630,177.020569,39.311512
13,0,50.607941,24.805262,24.012709,22.165354,64.515762,54.413101,-23.902420,92.977272,61.006073,-145.836533,176.965805,39.298210
14,0,50.666008,24.809139,24.051592,22.156462,64.511192,54.398033,-23.903883,92.977417,61.006931,-145.854294,177.019180,39.294121
15,0,50.667343,24.808199,24.051937,22.162178,64.509361,54.405258,-23.898001,92.971840,61.014320,-145.873749,176.988892,39.293957
16,0,50.666515,24.811384,24.068186,22.133545,64.504662,54.401203,-23.918734,92.976456,61.013939,-145.875504,176.988327,39.257053
17,0,50.659309,24.806849,24.078644,22.161627,64.506432,54.413151,-23.928152,92.981857,61.011730,-145.854004,177.019485,39.294853
18,0,50.639423,24.804455,24.056644,22.097078,64.503624,54.400475,-23.917021,92.976494,60.992321,-145.852386,176.970535,39.231091
19,0,50.675426,24.781847,24.057478,22.124409,64.493706,54.418362,-23.927210,92.959824,61.017529,-145.887604,176.981293,39.239429
20,0,50.659451,24.799335,24.059763,22.091969,64.488892,54.389816,-23.944563,92.959785,61.017376,-145.910156,176.995605,39.255367
21,0,50.662437,24.784790,24.057199,22.083586,64.482994,54.395355,-23.945807,92.929283,61.016575,-145.921585,176.932343,39.236271
22,0,50.662926,24.799341,24.061104,22.079939,64.483650,54.425598,-23.970055,92.952827,61.014118,-145.943604,176.944366,39.226360
23,0,50.666969,24.783630,24.059231,22.075939,64.490929,54.409397,-23.964174,92.939804,61.018456,-145.938705,176.943130,39.250591
24,0,50.683849,24.782707,24.060455,22.071173,64.487442,54.409435,-23.976360,92.932747,61.004875,-145.926208,176.923340,39.214821
25,0,50.657230,24.795319,24.081907,22.057789,64.497780,54.401794,-23.982258,92.927399,60.977230,-146.004166,176.934265,39.215542
26,0,50.647465,24.799713,24.080776,22.050491,64.499329,54.342617,-23.992422,92.931137,60.968067,-145.960938,176.916290,39.199715
27,0,50.628887,24.802765,24.058268,22.008162,64.521454,54.360931,-24.030293,92.980225,60.957893,-146.066605,176.978760,39.222569
28,0,50.622433,24.814455,24.071789,22.027271,64.502151,54.362099,-24.022482,92.953651,60.963680,-146.013123,176.953903,39.228611
29,0,50.637753,24.824953,24.069775,22.004166,64.533951,54.369492,-24.046217,92.975174,60.963490,-146.044022,176.960342,39.226509
30,0,50.630497,24.821302,24.073330,22.008205,64.532700,54.358047,-24.042912,92.974922,60.958195,-146.030548,176.994934,39.233303
31,0,50.632099,24.825026,24.073896,22.025616,64.535942,54.345600,-24.048676,92.970268,60.933868,-146.034592,176.993668,39.262428
32,0,50.614464,24.828066,24.079432,22.020582,64.529037,54.351467,-24.032530,92.975220,60.954678,-146.031998,176.991577,39.258350
33,0,50.619431,24.822714,24.064409,22.022480,64.541817,54.363525,-24.028721,92.987549,60.952560,-146.002167,176.995117,39.264206
34,0,50.636063,24.825130,24.068615,22.039888,64.548439,54.349480,-24.017126,93.012886,60.903934,-146.024460,177.061508,39.256802
35,0,50.643044,24.828588,24.075289,22.037600,64.572426,54.326775,-24.003031,93.053368,60.906311,-145.957291,177.068497,39.165161
36,0,50.654251,24.831463,24.058527,22.091667,64.585617,54.319656,-23.960970,93.090576,60.873669,-145.883865,177.116882,39.128811
37,0,50.673882,24.842274,24.092133,22.120695,64.609642,54.320919,-23.916115,93.073563,60.819057,-145.877319,177.166031,39.073364
38,0,50.678890,24.847422,24.100212,22.145943,64.633873,54.305267,-23.912249,93.113441,60.801765,-145.829407,177.200134,39.039749
39,0,50.686260,24.834600,24.085262,22.167786,64.658714,54.304806,-23.888620,93.163315,60.787048,-145.790695,177.238647,38.983791
40,0,50.704849,24.839712,24.090309,22.176809,64.670105,54.292233,-23.884521,93.189919,60.761322,-145.746933,177.304443,38.983181
41,0,50.682629,24.848803,24.078928,22.188925,64.694611,54.273571,-23.875046,93.231239,60.745049,-145.748138,177.296127,38.944771
42,0,50.686569,24.846340,24.082138,22.178312,64.699013,54.262047,-23.871065,93.231407,60.722557,-145.759277,177.308487,38.897614
43,0,50.689274,24.847069,24.091719,22.178310,64.718307,54.271782,-23.872595,93.247780,60.715836,-145.782227,177.357773,38.849926
44,0,50.713451,24.842796,24.091928,22.141079,64.718857,54.255386,-23.876261,93.254990,60.694801,-145.751816,177.301270,38.812508
45,0,50.700672,24.845989,24.088472,22.148384,64.694382,54.220707,-23.895769,93.262749,60.642189,-145.759521,177.334778,38.789806
46,0,50.700245,24.847006,24.103094,22.127321,64.752411,54.222919,-23.896557,93.295128,60.594120,-145.681198,177.275497,38.642357
47,0,50.710587,24.853786,24.098232,22.182085,64.776604,54.198650,-23.872030,93.315994,60.574547,-145.672546,177.341568,38.656792
48,0,50.733501,24.861694,24.092953,22.164473,64.785263,54.185307,-23.854845,93.355400,60.542019,-145.665955,177.330215,38.610733
49,0,50.719173,24.853323,24.079138,22.206070,64.813255,54.184097,-23.858713,93.402702,60.486660,-145.641830,177.390427,38.586391
50,0,50.767197,24.899214,24.078875,22.261227,64.882980,54.157867,-23.829100,93.476616,60.444149,-145.850952,177.492065,38.654652
51,0,50.754238,24.919651,24.082067,22.259573,64.904366,54.121140,-23.809761,93.479263,60.414032,-145.670563,177.417160,38.508686
52,0,50.744850,24.902025,24.080864,22.247017,64.959648,54.130001,-23.807791,93.525009,60.393101,-145.634399,177.413483,38.463474
53,0,50.754944,24.932215,24.097481,22.249672,64.958061,54.125797,-23.811775,93.544754,60.353455,-145.617432,177.390747,38.429146
54,0,50.723679,24.931896,24.081236,22.228661,64.962326,54.080566,-23.832685,93.559601,60.302830,-145.655396,177.397385,38.384789
55,0,50.722832,24.917238,24.078236,22.213211,64.966003,54.043476,-23.830070,93.538315,60.282951,-145.631104,177.377045,38.365410
56,0,50.713696,24.931448,24.077375,22.167099,64.959229,54.035706,-23.883526,93.588013,60.272278,-145.640366,177.370453,38.323608
57,0,50.707535,24.914379,24.080639,22.118145,64.940735,54.031311,-23.918604,93.547424,60.245243,-145.650299,177.415543,38.358868
58,0,50.685738,24.928503,24.094700,22.078308,64.962921,54.002419,-23.944620,93.572174,60.198341,-145.686417,177.353699,38.309826
59,0,50.671959,24.911671,24.083155,22.085142,64.969086,54.003098,-23.962317,93.588409,60.155472,-145.710144,177.361694,38.253826
60,0,50.687546,24.909317,24.086100,22.067131,64.983292,53.963764,-23.959951,93.620239,60.094906,-145.681702,177.373398,38.158192
61,0,50.682865,24.957247,24.081039,22.063406,65.025375,53.900322,-23.966286,93.664642,59.998085,-145.624680,177.347580,38.002758
62,0,50.704784,24.951899,24.089617,22.071413,65.068024,53.829788,-23.957588,93.734016,59.844044,-145.544510,177.335403,37.841682
63,0,50.720680,24.957056,24.073904,22.049547,65.109680,53.748402,-23.995401,93.817947,59.701584,-145.427109,177.404160,37.686268
64,0,50.749622,24.940063,24.073315,21.954666,65.049850,53.587421,-23.967289,93.836777,59.587906,-145.363281,177.385590,37.583790
65,0,50.813141,24.897772,24.092859,22.059208,65.151169,53.632175,-23.933317,93.879684,59.500900,-145.295929,177.335388,37.485939
66,0,50.822174,24.891300,24.069864,22.077894,65.142487,53.615158,-23.921381,93.907021,59.425228,-145.289474,177.323395,37.454243
67,0,50.834530,24.846394,24.054482,22.117502,65.050652,53.627697,-23.928652,93.850883,59.465183,-145.194336,177.297501,37.518177
68,0,50.920498,24.816984,24.060789,22.119110,64.987045,53.640690,-23.858742,93.786911,59.544384,-145.212387,177.264923,37.656139
69,0,50.969749,24.765654,24.099413,22.228416,64.922211,53.748787,-23.784544,93.725380,59.657063,-145.170303,177.216736,37.829174
70,0,51.077156,24.719007,24.077057,22.375301,64.842171,53.845123,-23.668514,93.635712,59.810108,-145.061676,177.161255,38.016487
71,0,51.127289,24.651529,24.096382,22.516716,64.783310,53.949371,-23.534815,93.562897,59.912994,-144.870850,177.173798,38.237652
72,0,51.184612,24.603725,24.092060,22.608559,64.701920,53.993752,-23.435678,93.467705,60.067513,-144.779434,177.262695,38.555035
73,0,51.285900,24.558754,24.119576,22.742323,64.627487,54.079906,-23.311699,93.472000,60.200298,-144.603561,177.241959,38.754707
74,0,51.334251,24.495886,24.103785,22.860165,64.575783,54.180393,-23.199894,93.382309,60.335373,-144.430756,177.305069,38.969925
75,0,51.407032,24.472183,24.113445,22.972727,64.547928,54.234764,-23.066170,93.345650,60.457001,-144.319656,177.390427,39.219200
76,0,51.438606,24.399147,24.108707,23.026417,64.500381,54.324001,-22.956364,93.301849,60.587063,-144.241898,177.498138,39.479156
77,0,51.478512,24.405619,24.096138,23.075436,64.434235,54.373707,-22.868114,93.303741,60.732868,-144.147217,177.602158,39.746334
78,0,51.495823,24.356499,24.105808,23.103909,64.413010,54.414280,-22.781080,93.293633,60.872303,-144.096939,177.675079,39.899277
79,0,51.509907,24.357344,24.112246,23.143076,64.398033,54.459232,-22.723499,93.261238,60.996597,-144.018173,177.719269,40.127071
80,0,51.529232,24.352133,24.082197,23.192192,64.340912,54.538910,-22.671581,93.244164,61.088276,-143.931702,177.722839,40.294071
81,0,51.506786,24.318619,24.090477,23.179203,64.274605,54.560493,-22.657373,93.178528,61.165642,-143.958557,177.742401,40.434502
82,0,51.502083,24.299011,24.117514,23.151190,64.217461,54.563572,-22.694292,93.115356,61.203983,-143.926712,177.707901,40.557228
83,0,51.512566,24.270872,24.116058,23.088385,64.139244,54.615669,-22.769970,92.998627,61.214939,-143.949142,177.658478,40.638977
84,0,51.460331,24.234720,24.081942,23.050205,64.103333,54.634209,-22.783459,92.960480,61.218708,-143.966721,177.638580,40.735668
85,0,51.442139,24.206528,24.079203,22.984810,64.046852,54.604523,-22.857082,92.878197,61.217388,-143.997894,177.578903,40.810982
86,0,51.418354,24.221497,24.080793,22.926085,64.007721,54.594414,-22.935019,92.826408,61.175285,-144.034988,177.526871,40.859760
87,0,51.401848,24.227503,24.059408,22.891830,63.985744,54.576706,-22.961325,92.815819,61.153976,-144.083740,177.509460,40.878159
88,0,51.366276,24.233400,24.067015,22.869446,64.013023,54.576900,-23.013657,92.789192,61.084240,-144.089706,177.462662,40.892223
89,0,51.330837,24.241585,24.045486,22.826637,64.000824,54.540897,-23.031443,92.801201,61.057831,-144.092865,177.474838,40.930313
90,0,51.324947,24.279734,24.035313,22.790834,64.028679,54.508606,-23.034433,92.794044,61.026432,-144.153839,177.416351,40.958225
91,0,51.329288,24.273911,24.034994,22.770153,64.066849,54.492783,-23.094023,92.851479,61.028450,-144.194778,177.431168,40.960594
92,0,51.284527,24.307762,24.017721,22.761358,64.073212,54.465179,-23.090569,92.851585,61.019615,-144.231476,177.396057,41.021324
93,0,51.265629,24.341934,24.018772,22.706612,64.108109,54.463448,-23.134745,92.839470,61.001602,-144.239334,177.346588,41.061050
94,0,51.164551,24.359385,23.968250,22.703821,64.101517,54.460899,-23.135548,92.816597,60.997601,-144.331177,177.358536,41.103294
95,0,51.223690,24.333626,23.996254,22.710978,64.114128,54.475811,-23.169300,92.793343,60.988560,-144.281952,177.290634,41.117710
96,0,51.202824,24.355219,23.994783,22.644188,64.109268,54.432060,-23.164232,92.777359,61.001438,-144.294922,177.228607,41.106766
97,0,51.208206,24.357513,23.973818,22.684259,64.115005,54.463284,-23.208462,92.754700,61.002380,-144.288177,177.236374,41.182789
98,0,51.203098,24.354328,23.995913,22.629246,64.110001,54.455818,-23.215061,92.739319,61.024345,-144.377197,177.179565,41.220905
99,0,51.199081,24.339609,24.014290,22.603958,64.058884,54.436932,-23.229914,92.743980,61.027283,-144.380142,177.117447,41.235508
100,0,51.197399,24.354034,24.003510,22.604889,64.050102,54.430901,-23.230103,92.707039,61.078060,-144.429306,177.095932,41.332497
101,0,51.187721,24.341192,23.990536,22.590559,64.037811,54.451725,-23.216551,92.673103,61.111839,-144.438141,177.064835,41.392487
102,0,51.198139,24.323828,23.996166,22.590984,64.035645,54.481350,-23.190037,92.631294,61.149834,-144.481232,177.043533,41.483654
103,0,51.099911,24.356005,23.969122,22.568342,64.005554,54.488308,-23.204115,92.641907,61.178040,-144.438202,176.963791,41.548450
104,0,51.174164,24.353703,23.990057,22.564381,63.999577,54.495358,-23.232254,92.616547,61.214588,-144.521667,176.952927,41.609615
105,0,51.163605,24.351606,23.992832,22.568794,64.003456,54.515690,-23.218401,92.592087,61.266140,-144.534546,176.890686,41.644588
106,0,51.163193,24.348728,23.994204,22.601557,64.028366,54.556725,-23.222935,92.589943,61.254196,-144.544205,176.908829,41.687881
107,0,51.155300,24.366610,23.973074,22.583128,63.997978,54.536484,-23.244268,92.581520,61.279026,-144.622650,176.889481,41.734352
108,0,51.162312,24.362577,23.975569,22.574305,63.985058,54.553528,-23.229401,92.534462,61.275005,-144.649338,176.831726,41.675816
109,0,51.142284,24.367302,23.974504,22.555447,64.025452,54.556320,-23.282328,92.547981,61.252514,-144.652924,176.794098,41.688747
110,0,51.137733,24.352966,24.004547,22.551985,64.041557,54.543507,-23.318527,92.555527,61.242901,-144.713104,176.775665,41.699493
111,0,51.148041,24.362108,23.994673,22.516386,64.029701,54.533096,-23.347048,92.542267,61.231567,-144.755768,176.802780,41.652134
112,0,51.142216,24.360363,23.994795,22.503975,64.027679,54.521362,-23.368177,92.558029,61.212696,-144.734329,176.730225,41.630959
113,0,51.083866,24.369358,23.996614,22.466564,64.024269,54.521553,-23.395720,92.516762,61.194355,-144.762131,176.725311,41.579739
114,0,51.077274,24.364777,23.994009,22.460157,64.033920,54.499500,-23.418314,92.493561,61.171127,-144.802658,176.706207,41.566067
115,0,51.080074,24.377331,23.994459,22.411911,64.029358,54.509056,-23.448355,92.516243,61.149944,-144.865875,176.717651,41.492805
116,0,51.054077,24.398170,23.981747,22.383017,64.056831,54.490036,-23.490477,92.517342,61.132320,-144.878067,176.708481,41.463337
117,0,51.044003,24.390871,23.993477,22.349342,64.058578,54.486416,-23.534372,92.551994,61.117058,-144.878403,176.709824,41.443356
118,0,51.028702,24.423820,24.008156,22.374453,64.072693,54.485401,-23.543007,92.558090,61.081909,-144.920670,176.737885,41.451046
119,0,50.997593,24.436707,24.001011,22.335619,64.115395,54.443069,-23.571861,92.602585,61.048206,-144.939163,176.722092,41.296783
120,0,51.013474,24.453714,23.995581,22.337851,64.133530,54.414894,-23.559885,92.633728,60.977070,-144.950378,176.808319,41.295837
121,0,50.989944,24.448919,23.983521,22.328672,64.175865,54.410538,-23.572802,92.651047,60.951832,-144.953842,176.758362,41.196426
122,0,50.977531,24.452427,24.018038,22.339146,64.189453,54.385300,-23.567049,92.699265,60.931274,-144.866531,176.787598,41.124748
123,0,50.995476,24.476114,24.014963,22.293575,64.217720,54.377155,-23.551731,92.682037,60.886314,-144.932266,176.809753,41.082024
124,0,50.970333,24.470659,24.020164,22.336269,64.249374,54.348442,-23.597618,92.732666,60.829266,-144.957321,176.855972,40.983028
125,0,50.969021,24.486353,24.003494,22.346455,64.259964,54.341213,-23.592077,92.735184,60.831337,-144.915359,176.846664,40.907986
126,0,50.969936,24.493834,24.017019,22.260256,64.216454,54.287674,-23.573746,92.762215,60.771233,-144.907074,176.892685,40.826340
127,0,50.999882,24.488161,24.034603,22.262024,64.225990,54.267456,-23.608730,92.779144,60.751377,-144.907959,176.866547,40.761021
128,0,50.985283,24.478981,24.060390,22.240801,64.269173,54.258110,-23.635725,92.785248,60.743645,-144.897888,176.894547,40.736130
129,0,50.972416,24.521980,24.029194,22.282545,64.337738,54.248093,-23.645805,92.870804,60.615860,-144.901108,176.902115,40.553398
130,0,50.979088,24.551567,24.008955,22.248003,64.351151,54.208115,-23.660614,92.895073,60.597023,-144.979141,176.944168,40.454750
131,0,50.921474,24.548729,24.029242,22.300381,64.408508,54.250340,-23.660950,92.915817,60.561626,-144.952103,176.934738,40.380165
132,0,50.946613,24.564091,24.031776,22.267597,64.378929,54.144405,-23.664753,92.952911,60.507652,-144.909821,176.964279,40.294266
133,0,50.938595,24.561291,24.048368,22.227013,64.409103,54.130676,-23.680399,93.024986,60.466305,-144.926529,176.942841,40.204319
134,0,51.027222,24.442436,24.089132,22.305073,64.465492,54.170586,-23.676723,93.045631,60.428921,-144.961334,176.982498,40.095905
135,0,51.011963,24.482941,24.077101,22.271885,64.503822,54.154140,-23.674484,93.110733,60.372059,-144.947815,176.980865,40.022831
136,0,51.010456,24.488750,24.086012,22.249668,64.555679,54.133633,-23.679636,93.146782,60.360889,-144.969254,176.991867,39.929840
137,0,51.033096,24.511112,24.080473,22.243341,64.557579,54.116241,-23.704533,93.158607,60.288509,-144.959091,177.051880,39.874428
138,0,51.036522,24.470247,24.083044,22.231802,64.601189,54.073700,-23.736506,93.221581,60.241894,-144.968658,177.021851,39.793327
139,0,51.069420,24.495983,24.088242,22.232254,64.629677,54.029408,-23.737249,93.255875,60.188061,-144.990936,177.081329,39.702446
140,0,51.073544,24.501108,24.097544,22.231264,64.636749,54.050831,-23.744909,93.245003,60.188446,-144.981689,177.065414,39.618435
141,0,51.043610,24.493864,24.103607,22.202223,64.646492,54.057339,-23.752430,93.249779,60.181053,-144.992645,177.121063,39.613300
142,0,51.030201,24.490795,24.101830,22.182209,64.649727,54.020489,-23.779879,93.270699,60.158562,-145.006683,177.086609,39.489964
143,0,50.880508,24.662104,24.061640,22.165527,64.630424,53.992191,-23.785145,93.257736,60.145424,-144.993744,177.109039,39.466816
144,0,50.884525,24.663683,24.061457,22.207289,64.650696,54.022888,-23.800644,93.266060,60.137741,-144.986252,177.126099,39.409664
145,0,50.872162,24.678638,24.044287,22.211908,64.654236,54.045795,-23.780676,93.264999,60.122429,-144.966187,177.134842,39.395275
146,0,51.043316,24.526945,24.098410,22.224478,64.672089,54.032406,-23.760349,93.260719,60.122574,-144.956497,177.145386,39.352440
147,0,51.009705,24.534998,24.095968,22.243967,64.647362,54.024269,-23.742542,93.313408,60.109020,-144.896164,177.207596,39.343300
148,0,51.015736,24.543819,24.090082,22.247532,64.650299,54.000046,-23.736883,93.334602,60.122784,-144.916534,177.205627,39.289471
149,0,51.017033,24.553820,24.068792,22.245142,64.684402,54.003181,-23.719522,93.363899,60.102886,-144.908356,177.260147,39.271957
150,0,51.033569,24.543530,24.071762,22.263575,64.694695,54.012436,-23.731802,93.399391,60.104481,-144.846771,177.232864,39.260571
151,0,51.032764,24.544584,24.067371,22.248913,64.666573,53.987175,-23.692957,93.371384,60.110203,-144.860779,177.254837,39.246693
152,0,51.039028,24.511166,24.067081,22.261957,64.661812,54.000763,-23.684700,93.394089,60.111042,-144.836609,177.285461,39.251713
153,0,51.061516,24.529621,24.052265,22.292734,64.661476,54.019531,-23.688135,93.406929,60.128841,-144.864120,177.319504,39.262226
154,0,51.074158,24.537291,24.058817,22.299072,64.666687,54.041603,-23.681765,93.402557,60.134750,-144.811005,177.277649,39.265102
155,0,51.093369,24.519808,24.073912,22.331448,64.678032,54.059048,-23.665895,93.377014,60.191715,-144.790665,177.286102,39.307575
156,0,50.970623,24.661711,24.034008,22.300814,64.620277,54.026985,-23.650158,93.379707,60.212280,-144.748444,177.349380,39.307407
157,0,50.939167,24.650028,24.048969,22.334955,64.643303,54.031372,-23.609047,93.387650,60.205799,-144.751160,177.384552,39.328438
158,0,50.988251,24.675982,24.040705,22.387489,64.675560,54.050705,-23.627073,93.433746,60.211098,-144.752991,177.380295,39.327087
159,0,51.128761,24.523552,24.101574,22.388342,64.691650,54.058056,-23.606277,93.438255,60.210121,-144.767487,177.373352,39.295902
160,0,51.101410,24.516516,24.071306,22.427711,64.677078,54.061382,-23.595417,93.449173,60.217266,-144.753189,177.403229,39.328156
161,0,51.115433,24.529852,24.092087,22.391479,64.695801,54.064663,-23.578451,93.425232,60.208351,-144.739456,177.445587,39.340675
162,0,51.087013,24.550976,24.085014,22.408287,64.707222,54.097549,-23.613073,93.426956,60.217506,-144.802032,177.373703,39.316048
163,0,51.055656,24.532789,24.077267,22.383390,64.690323,54.109810,-23.616730,93.417625,60.246464,-144.833725,177.407898,39.440556
164,0,51.025280,24.528740,24.110825,22.341269,64.683914,54.113506,-23.628799,93.358353,60.267357,-144.875397,177.362228,39.436832
165,0,51.013493,24.551584,24.114580,22.271933,64.613174,54.080029,-23.640274,93.366882,60.296967,-144.937073,177.320114,39.389168
166,0,50.898544,24.702322,24.036598,22.261724,64.594269,54.077217,-23.680878,93.303543,60.313091,-144.928986,177.262070,39.384933
167,0,50.895241,24.691591,24.059137,22.200642,64.576645,54.084171,-23.734171,93.260948,60.326866,-144.971924,177.191681,39.383923
168,0,50.897137,24.707325,24.045258,22.178539,64.560547,54.070778,-23.747671,93.219193,60.344090,-145.050095,177.202972,39.387218
169,0,50.888683,24.692575,24.061384,22.175728,64.558426,54.069935,-23.788637,93.214432,60.331047,-145.097382,177.138260,39.412655
170,0,50.877117,24.707653,24.053669,22.169462,64.550201,54.068760,-23.789543,93.214622,60.331394,-145.082642,177.154480,39.387688
171,0,50.893360,24.696451,24.068144,22.167494,64.533020,54.075619,-23.815752,93.226021,60.333935,-145.161514,177.085358,39.362862
172,0,50.883583,24.703869,24.047388,22.146086,64.554184,54.055790,-23.834192,93.209625,60.341480,-145.134338,177.065292,39.326939
173,0,50.870068,24.707188,24.046864,22.111267,64.558739,54.060711,-23.838049,93.214119,60.333950,-145.143890,177.010315,39.315613
174,0,50.864723,24.723236,24.044979,22.128540,64.538559,54.057053,-23.845850,93.197281,60.334129,-145.225601,177.030869,39.366901
175,0,50.841129,24.696644,24.049328,22.108652,64.524223,54.066795,-23.858503,93.179665,60.346817,-145.238724,177.005432,39.367367
176,0,50.758957,24.706442,23.987741,22.160572,64.614754,54.124596,-23.900534,93.136208,60.368389,-145.249146,176.950760,39.360287
177,0,50.825333,24.680584,24.037132,22.131460,64.586365,54.168842,-23.899759,93.119690,60.370422,-145.289169,176.967300,39.374344
178,0,50.821617,24.685631,24.049162,22.140680,64.576309,54.174198,-23.911894,93.087402,60.404655,-145.333237,176.947495,39.454494
179,0,50.818222,24.676849,24.040735,22.125177,64.563911,54.177361,-23.909075,93.068489,60.440605,-145.339783,176.917099,39.447704
180,0,50.827431,24.680735,24.037085,22.135923,64.551910,54.190811,-23.905062,93.061569,60.472107,-145.362442,176.913559,39.482285
181,0,50.813999,24.679792,24.022463,22.159586,64.552467,54.184872,-23.904989,93.060577,60.472012,-145.405670,176.904160,39.495937
182,0,50.797668,24.663807,24.056829,22.069330,64.463676,54.117031,-23.907511,93.061546,60.477406,-145.350159,176.901581,39.484390
183,0,50.791763,24.676165,24.022863,22.141438,64.539726,54.197868,-23.887106,93.056862,60.477520,-145.334976,176.902542,39.479870
184,0,50.797485,24.669361,24.040924,22.143236,64.547272,54.182690,-23.903421,93.089035,60.463787,-145.367477,176.915314,39.485470
185,0,50.834965,24.681551,24.039478,22.156445,64.550629,54.186554,-23.871874,93.090759,60.487118,-145.367294,176.914078,39.484653
186,0,50.822548,24.675285,24.043831,22.072731,64.469604,54.120491,-23.857681,93.086327,60.465122,-145.364258,176.913269,39.482616
187,0,50.796753,24.695831,24.038609,22.071556,64.475266,54.113194,-23.884207,93.085335,60.492496,-145.382248,176.932785,39.453007
188,0,50.798962,24.695877,24.038904,22.036304,64.489349,54.103252,-23.914860,93.091125,60.469387,-145.412842,176.943726,39.428051
189,0,50.793274,24.693985,24.034410,22.044834,64.486115,54.114136,-23.919678,93.074020,60.468735,-145.414032,176.942551,39.427299
190,0,50.783020,24.688036,24.039776,22.030617,64.506790,54.105743,-23.925562,93.079536,60.461670,-145.428131,176.897522,39.426666
191,0,50.810097,24.692019,24.034637,22.037083,64.498711,54.114033,-23.953873,93.065170,60.451015,-145.456924,176.926071,39.419144
192,0,50.808701,24.686934,24.018703,22.061670,64.485542,54.102032,-23.948162,93.068611,60.450039,-145.440765,176.902069,39.386700
193,0,50.808865,24.691210,24.034966,22.054331,64.464729,54.112167,-23.949841,93.078506,60.434982,-145.423508,176.904388,39.357220
194,0,50.832199,24.690842,24.039883,22.037014,64.491997,54.105953,-23.925829,93.081985,60.428814,-145.417664,176.882202,39.349884
195,0,50.830845,24.703224,24.028967,22.060255,64.487457,54.091198,-23.915525,93.061569,60.405010,-145.402328,176.880035,39.371101
196,0,50.837227,24.688843,24.026136,22.055305,64.478134,54.082752,-23.932869,93.073471,60.380360,-145.374649,176.850571,39.314827
197,0,50.833633,24.683647,24.005896,22.052483,64.472061,54.090935,-23.920452,93.080864,60.369320,-145.420197,176.877609,39.319305
198,0,50.819000,24.692345,24.019182,22.052303,64.471474,54.091038,-23.925171,93.069473,60.371475,-145.401978,176.889252,39.292057
199,0,50.821857,24.691917,24.021152,22.032450,64.493706,54.088196,-23.911947,93.071259,60.410717,-145.408386,176.892197,39.279232
200,0,50.840771,24.682711,24.020887,22.046669,64.490074,54.090618,-23.913715,93.062920,60.410744,-145.421875,176.907364,39.308971
201,0,50.825794,24.689711,24.041029,22.026447,64.477280,54.091846,-23.923552,93.068787,60.430874,-145.388794,176.897690,39.325974
202,0,50.803902,24.700668,24.023216,22.021086,64.486382,54.107613,-23.916903,93.065170,60.437302,-145.386780,176.899734,39.357742
203,0,50.788349,24.687336,24.057692,22.025328,64.515602,54.107845,-23.929024,93.079788,60.448021,-145.468933,176.938370,39.403313
204,0,50.791027,24.700508,24.042913,22.021812,64.499245,54.099297,-23.919538,93.055847,60.481018,-145.431793,176.933075,39.400429
205,0,50.776657,24.693182,24.030060,22.020161,64.488258,54.108894,-23.940100,93.096283,60.472080,-145.465042,176.993210,39.377796
206,0,50.800446,24.704473,24.038755,22.021147,64.497139,54.106178,-23.910852,93.106918,60.470264,-145.396912,177.021103,39.420296
207,0,50.801212,24.707056,24.038515,22.026224,64.534782,54.107773,-23.922073,93.118217,60.430634,-145.427887,176.967316,39.318794
208,0,50.829636,24.692850,24.040728,22.036135,64.536255,54.117290,-23.921494,93.115532,60.405666,-145.404739,176.981613,39.303574
209,0,50.829731,24.671394,24.059999,22.049896,64.526047,54.102795,-23.884743,93.120972,60.433460,-145.334717,176.960144,39.242050
210,0,50.841255,24.705606,24.039749,22.040743,64.516998,54.104351,-23.912508,93.137428,60.400948,-145.338379,176.968918,39.246704
211,0,50.819752,24.701786,24.051056,22.024403,64.542923,54.105495,-23.924444,93.141464,60.381470,-145.432388,176.977173,39.266155
212,0,50.822407,24.687199,24.052746,22.055096,64.536911,54.114304,-23.933065,93.117683,60.387794,-145.455734,176.946960,39.205040
213,0,50.836086,24.691113,24.047659,22.035593,64.539452,54.114384,-23.953556,93.147247,60.391846,-145.436951,176.934799,39.226868
214,0,50.836422,24.706491,24.043905,22.038380,64.540916,54.101444,-23.927948,93.109688,60.383724,-145.424927,176.859756,39.131790
215,0,50.826603,24.693056,24.059666,22.028891,64.516876,54.101109,-23.945009,93.136719,60.386574,-145.514099,176.894516,39.155891
216,0,50.776222,24.704983,24.075878,22.001966,64.498772,54.127586,-23.948606,93.135429,60.400547,-145.548065,176.854736,39.134300
217,0,50.758110,24.722431,24.073757,21.979595,64.519012,54.113369,-24.018269,93.157318,60.347477,-145.535370,176.805801,39.062492
218,0,50.748032,24.721037,24.078625,21.948936,64.511696,54.104156,-24.048790,93.139412,60.325268,-145.598526,176.851379,39.096336
219,0,50.754787,24.732857,24.059143,21.928284,64.555786,54.066952,-24.051718,93.137886,60.304844,-145.656479,176.805679,39.010986
220,0,50.767025,24.739197,24.054405,21.917196,64.547974,54.051254,-24.053518,93.142372,60.292370,-145.663803,176.799545,38.978542
221,0,50.754311,24.733442,24.059278,21.914141,64.568336,54.037506,-24.079552,93.180908,60.248455,-145.701263,176.780258,38.936180
222,0,50.740158,24.731775,24.065828,21.913595,64.576248,54.013474,-24.113289,93.194771,60.222000,-145.684906,176.765427,38.877300
223,0,50.742199,24.746140,24.057541,21.893171,64.579048,53.999069,-24.099968,93.157822,60.196018,-145.722015,176.700272,38.846241
224,0,50.750214,24.760990,24.055424,21.867641,64.608643,53.973873,-24.144444,93.187202,60.135292,-145.778442,176.733109,38.775452
225,0,50.737633,24.736061,24.076885,21.870399,64.598709,53.978897,-24.139198,93.190445,60.131645,-145.754807,176.731964,38.733871
226,0,50.750160,24.758776,24.060234,21.924574,64.713638,54.026230,-24.161325,93.203743,60.095036,-145.764877,176.723709,38.698318
227,0,50.749878,24.747541,24.074913,21.911793,64.682938,54.029232,-24.139566,93.179810,60.094872,-145.748383,176.733551,38.737087
228,0,50.710030,24.750814,24.075283,21.877262,64.692894,54.005070,-24.219250,93.209709,60.093227,-145.824142,176.720444,38.677071
229,0,50.695957,24.767824,24.077469,21.872723,64.687309,54.022594,-24.241322,93.217964,60.071671,-145.823761,176.747070,38.702984
230,0,50.688560,24.807135,24.063496,21.780874,64.628418,53.927971,-24.228735,93.230232,60.061123,-145.813217,176.766296,38.626389
231,0,50.686493,24.806622,24.062378,21.782486,64.628830,53.931740,-24.230919,93.241821,60.047546,-145.772552,176.731689,38.576202
232,0,50.687038,24.797493,24.044621,21.763449,64.640945,53.914768,-24.243364,93.241890,60.042885,-145.763214,176.778793,38.559078
233,0,50.705738,24.790052,24.052019,21.782518,64.610016,53.921181,-24.225891,93.249115,60.010250,-145.746353,176.741241,38.539234
234,0,50.695354,24.790066,24.045256,21.795286,64.638680,53.924717,-24.231491,93.261642,59.991776,-145.763718,176.754730,38.490383
235,0,50.668781,24.810171,24.021662,21.846476,64.730415,53.940662,-24.228865,93.310448,59.945004,-145.754196,176.793518,38.438526
236,0,50.711544,24.780405,24.032553,21.847652,64.728897,53.942902,-24.226198,93.308258,59.936554,-145.758774,176.768936,38.399666
237,0,50.722725,24.782764,24.046261,21.847334,64.738312,53.927704,-24.229910,93.302559,59.908073,-145.722656,176.772858,38.374535
238,0,50.708157,24.790918,24.060781,21.843622,64.739700,53.927128,-24.264977,93.321922,59.866760,-145.749039,176.770676,38.347004
239,0,50.725994,24.778042,24.072632,21.855604,64.759476,53.896500,-24.250622,93.345451,59.826290,-145.704666,176.755142,38.273735
240,0,50.720802,24.805569,24.036913,21.848564,64.780418,53.886166,-24.250916,93.353493,59.774151,-145.680283,176.711761,38.159489
241,0,50.719574,24.819983,24.033556,21.840097,64.815620,53.871449,-24.256548,93.369240,59.733494,-145.633865,176.725922,38.115955
242,0,50.726772,24.794994,24.048157,21.842098,64.859253,53.844696,-24.265429,93.384041,59.678349,-145.635925,176.706528,38.071201
243,0,50.684910,24.837721,24.037544,21.793360,64.899414,53.807964,-24.275629,93.408836,59.667103,-145.604309,176.706680,38.010468
244,0,50.687233,24.840864,24.037436,21.788010,64.908661,53.811420,-24.322672,93.457481,59.597488,-145.625443,176.698593,37.962418
245,0,50.676105,24.841015,24.022327,21.770174,64.920586,53.769352,-24.333004,93.463326,59.560276,-145.679276,176.757401,37.932789
246,0,50.673492,24.856640,24.022278,21.777967,64.959351,53.735954,-24.337023,93.475182,59.523346,-145.651779,176.727280,37.889179
247,0,50.678501,24.866795,24.008724,21.785925,64.986885,53.720551,-24.319677,93.509552,59.459400,-145.556595,176.742294,37.803761
248,0,50.692627,24.857067,24.028879,21.687424,64.901932,53.639935,-24.302139,93.524361,59.441620,-145.579636,176.712051,37.785141
249,0,50.699253,24.854902,24.037788,21.765825,65.002357,53.666924,-24.320766,93.556175,59.404778,-145.582764,176.728073,37.729492
250,0,50.733337,24.850132,24.020622,21.802277,65.015938,53.643501,-24.269659,93.612274,59.329540,-145.513519,176.709778,37.673702
251,0,50.783531,24.849892,24.023188,21.847155,65.031624,53.621300,-24.252066,93.632683,59.273621,-145.431763,176.668961,37.609028
252,0,50.802700,24.862429,24.026628,21.863445,65.038986,53.605583,-24.215500,93.615227,59.252182,-145.365723,176.692398,37.620678
253,0,50.796612,24.859409,24.034184,21.858423,65.043884,53.596352,-24.224630,93.648689,59.202171,-145.343643,176.676422,37.574715
254,0,50.794937,24.853125,24.031864,21.862131,65.064384,53.560734,-24.198538,93.677528,59.156807,-145.360107,176.659531,37.602009
255,0,50.805088,24.829264,24.029678,21.868166,65.071495,53.574062,-24.212883,93.676941,59.135303,-145.363800,176.660812,37.633278
256,0,50.819626,24.837500,24.017355,21.871408,65.031914,53.586872,-24.208267,93.630745,59.193314,-145.372070,176.596085,37.742596
257,0,50.885513,24.792509,24.016558,21.922176,64.956436,53.639027,-24.164249,93.573128,59.328957,-145.442780,176.595596,37.963421
258,0,50.945141,24.722250,23.969471,22.044458,64.867645,53.770088,-24.048510,93.450493,59.570290,-145.476242,176.611435,38.349930
259,0,51.100128,24.638105,23.970764,22.322189,64.648788,53.963081,-23.845490,93.263336,59.973000,-145.466446,176.590393,38.965561
260,0,51.234261,24.488111,23.986618,22.619459,64.410156,54.311867,-23.471855,92.989281,60.672138,-145.291931,176.684250,39.884750
261,0,51.372555,24.287281,23.968468,23.030697,64.068718,54.788177,-22.922523,92.790932,61.677170,-145.146118,176.846100,41.075752
262,0,51.581844,24.139658,23.995525,23.613005,63.668854,55.438095,-22.085735,92.813484,62.938942,-144.902618,177.287003,42.551891
263,0,51.685497,24.085598,23.999977,24.478168,63.442223,56.154709,-20.844042,93.058334,64.503807,-144.289169,177.898346,44.122425
264,0,51.796490,24.226826,24.124493,25.679289,63.293369,57.055157,-19.303486,93.732437,66.622589,-143.339966,178.579987,45.762497
265,0,51.908615,24.430965,24.594156,27.097111,63.399792,58.470570,-17.171904,95.083000,69.336884,-141.990967,179.322769,47.540981
266,0,52.375202,25.254267,25.725849,28.724300,63.824661,60.732616,-14.933052,96.636505,72.411980,-140.325531,180.146912,49.406105
267,0,54.089378,26.740267,28.216290,30.863626,65.065727,63.725254,-12.500197,98.347038,75.819733,-138.528687,181.134003,51.365677
268,0,56.714657,28.662727,32.092731,33.513340,67.163719,67.442146,-9.836224,100.165459,79.622833,-136.172409,180.618759,52.811134
269,0,60.170074,30.978647,37.091492,36.411636,69.561691,71.937370,-7.575021,102.098083,83.519676,-134.164978,182.937836,55.754658
270,0,63.957722,33.271202,42.963207,39.264168,71.982368,77.087341,-5.516064,103.974159,87.580017,-131.461502,182.807159,57.633644
271,0,67.720558,35.567669,49.159626,42.018845,74.344925,82.687973,-3.459315,105.709496,91.993950,-128.768616,183.769257,60.306671
272,0,71.466568,37.804794,55.449501,44.818184,76.546204,88.519981,-1.199351,107.569702,96.560211,-126.070198,185.069275,63.194798
273,0,75.132332,40.116772,61.394127,47.801918,78.741211,94.238083,1.634313,109.703613,101.295464,-123.095627,186.479187,66.201042
274,0,79.031120,42.722939,66.911346,51.236755,81.099350,99.750168,4.933638,112.074478,106.077278,-119.749466,188.023376,69.404259
275,0,83.463905,45.641689,72.137970,55.190403,83.761520,104.892815,8.692098,114.647629,110.848343,-116.100868,189.572083,72.609322
276,0,88.316002,48.959946,77.031319,59.650841,86.774452,109.844322,12.814720,117.394440,115.577339,-112.020515,191.299911,75.855675
277,0,93.598289,52.436493,81.793701,64.480949,89.985489,114.613640,17.261463,120.261856,120.117569,-107.526642,194.014328,79.347321
278,0,99.135330,56.011368,86.507080,69.624847,93.345596,119.283638,22.025429,123.167511,124.448967,-102.957840,195.180862,82.268669
279,0,105.029823,59.662254,91.110596,75.062012,96.780212,123.779114,27.090006,126.245049,128.529861,-98.001045,196.872162,85.258423
280,0,111.198906,63.381126,95.366051,80.747162,100.208351,127.948524,32.452927,129.345917,132.342743,-92.738251,198.815811,88.251480
281,0,117.628845,67.283546,98.998222,86.761719,103.758690,131.738602,38.246166,132.485535,135.813110,-87.137726,200.758118,91.154831
282,0,124.589043,71.447037,102.014702,93.138451,107.361031,135.078918,44.293804,135.678741,138.990189,-81.261116,202.711243,93.939018
283,0,131.752090,75.952209,104.312088,99.987343,111.082458,137.895477,50.793823,138.634048,141.772766,-75.281578,204.532761,96.753502
284,0,139.595886,80.806641,105.944733,107.202667,114.859535,140.188660,57.489445,141.468826,144.292694,-69.234650,206.324966,99.593712
285,0,147.570129,85.740883,107.083252,114.670151,118.719887,142.023483,64.302345,144.427841,146.746307,-63.122993,208.026169,102.351601
286,0,155.575943,90.658577,107.856895,122.225853,122.555099,143.572739,71.247414,146.973618,148.823105,-56.949471,209.676117,104.999619
287,0,163.313965,95.233635,108.449646,129.755783,126.120407,144.897156,78.206802,149.522125,150.639893,-50.791428,211.444427,107.595444
288,0,170.595840,99.343384,108.878204,137.074066,129.391922,146.120026,85.202774,152.049194,152.350357,-44.449654,213.115799,109.908653
289,0,177.876801,103.097000,109.480476,144.273361,132.450699,147.213913,92.244392,154.678665,153.836472,-38.097511,214.874039,112.146500
290,0,184.969864,106.657188,109.824905,151.410461,135.422348,148.105560,99.280037,157.339233,155.086319,-31.562679,216.655945,114.048531
291,0,191.933960,109.988792,110.002655,158.516479,138.332947,148.784637,106.348145,160.045471,156.097076,-24.965649,218.395782,115.764832
292,0,198.961380,113.612770,109.780876,165.717667,141.220825,149.187408,113.431557,162.769714,156.831314,-18.309475,220.144806,117.325859
293,0,206.051270,116.497772,109.468384,172.997253,144.079117,149.205704,120.643417,165.364044,157.267105,-11.676268,221.824402,118.753212
294,0,213.230392,119.791069,108.625092,180.366745,146.875061,148.799088,127.920013,167.779648,157.300369,-4.990287,223.361511,120.042168
295,0,220.467010,123.356186,107.195953,187.806152,149.637253,147.945190,135.233963,169.971024,157.041443,1.528561,224.819946,121.229263
296,0,227.672607,126.768532,105.304283,195.140213,152.379608,146.558136,142.555084,171.958771,156.492447,7.920322,226.089493,122.378738
297,0,234.917847,130.503738,102.962791,202.438583,155.053146,144.879913,149.638931,173.821732,155.797485,13.763416,227.403152,123.509537
298,0,241.656342,134.234436,100.462036,209.478363,157.592285,143.177124,156.463684,175.502869,154.993942,19.641073,228.471039,124.376930
299,0,247.990570,137.530548,98.130943,216.226334,160.042313,141.432632,163.002213,177.106583,154.122131,25.741949,229.125046,125.004036
300,0,254.191971,140.457016,96.057533,222.535294,162.306946,139.834244,169.289139,178.756989,153.231628,30.948580,230.287125,125.693115
301,0,259.854553,142.705643,94.353004,228.457825,164.363831,138.441284,175.262787,180.526855,152.343033,36.415867,231.319366,125.939102
302,0,265.386505,144.484665,92.879921,234.175491,166.203384,137.135651,181.021683,182.268265,151.360596,42.132946,232.254288,125.819786
303,0,270.505951,146.120438,91.378418,239.603760,167.886230,135.801498,186.596985,183.995773,150.406509,47.057568,233.498947,125.973312
304,0,275.471497,147.730331,89.662437,244.961349,169.519669,134.345947,192.022781,185.729065,149.272812,52.642052,234.350555,125.474777
305,0,280.312286,149.286972,87.786064,250.158096,171.098389,132.663055,197.333466,187.299408,147.966949,57.723637,235.254608,125.145508
306,0,285.122925,150.944321,85.674950,255.280640,172.648941,130.766647,202.481720,188.638702,146.483932,62.568226,236.031845,124.766998
307,0,289.786499,152.732391,83.250343,260.069519,174.101425,128.582687,207.435654,189.774796,144.914581,67.077286,236.606888,124.395401
308,0,294.201172,154.559174,80.604523,264.642273,175.518112,126.290665,212.178513,190.668808,143.253448,70.901985,237.181854,124.182411
309,0,298.363373,156.340652,77.966461,269.326538,176.664459,124.072922,216.663300,191.364029,141.669235,75.226669,237.370026,123.529762
310,0,302.190308,157.831207,75.504013,273.516846,177.712784,121.977837,220.856262,192.001923,140.101822,78.559601,237.890335,123.244781
311,0,305.769287,159.044205,73.373962,277.384918,178.625305,120.102417,224.747147,192.642517,138.746323,82.079185,238.178986,122.617134
312,0,309.108032,159.912674,71.599228,280.955292,179.481674,118.544075,228.363983,193.387070,137.522522,85.523056,238.475479,121.823769
313,0,312.240387,160.550293,70.166130,284.395660,180.233368,117.167015,231.773590,194.197495,136.331360,89.193245,238.675690,120.777664
314,0,315.370911,160.828842,69.079460,287.546356,180.832306,116.039780,235.024109,194.937759,135.189682,92.364670,239.053452,119.850212
315,0,318.456299,160.678680,68.148544,290.715210,181.154572,114.920128,238.121429,195.590958,133.987595,94.986977,239.652908,119.075226
316,0,321.196289,160.585083,66.929008,293.599731,181.469666,113.639832,241.135986,196.052795,132.642731,98.001335,239.892593,118.039734
317,0,323.859344,160.507095,65.392670,296.390991,181.650162,112.121529,244.031860,196.341614,131.206894,100.876839,240.163834,117.081284
318,0,326.255493,160.496414,63.475170,299.113739,181.675400,110.270378,246.940063,196.480545,129.628815,103.583733,240.311722,116.200783
319,0,328.444244,160.681702,61.169037,301.845306,181.589661,108.240051,249.822220,196.478043,127.965614,106.317635,240.285172,115.252884
320,0,330.727264,160.591736,58.716553,304.473419,181.351425,106.034760,252.641296,196.207520,126.289215,108.880287,240.129395,114.333031
321,0,332.997040,160.274139,56.125977,306.918396,181.081985,103.831696,255.190796,195.719925,124.589676,111.629211,239.783585,113.306534
322,0,334.938446,160.228210,53.758720,309.117157,180.647766,101.677963,257.461273,195.084229,122.978706,113.494812,239.569687,112.676819
323,0,336.535461,159.748474,51.604034,311.108704,180.017899,99.847557,259.594910,194.391220,121.534416,115.563309,239.364777,111.778336
324,0,337.879059,158.845154,49.802700,312.827240,179.149429,98.199738,261.464020,193.749695,120.233086,117.543205,239.102753,110.742516
325,0,339.067352,157.558044,48.434814,314.334106,178.048218,96.886330,263.203766,193.164810,119.074684,119.445412,238.914764,109.668472
326,0,339.973724,156.272888,47.234955,315.725311,177.015808,95.709213,264.709991,192.597321,117.944077,121.180527,238.714935,108.622604
327,0,341.245148,155.038910,46.146175,317.062012,176.074478,94.665192,266.143646,192.072693,116.836533,122.590408,238.669800,107.811516
328,0,342.502533,153.778809,45.194050,318.344604,175.234894,93.523422,267.459381,191.502884,115.712753,124.692757,238.052734,106.322777
329,0,343.327209,152.653488,43.967461,319.632599,174.423340,92.360123,268.800507,190.948471,114.568970,125.528427,238.149399,105.752609
330,0,344.517151,151.434784,42.812786,320.849426,173.512802,91.077713,270.156097,190.289917,113.409821,127.079010,237.640808,104.575630
331,0,345.291229,150.309570,41.315258,321.983612,172.638885,89.750656,271.291351,189.660248,112.240456,128.612274,237.347290,103.601814
332,0,345.847168,149.223892,39.844181,323.070984,171.678253,88.289886,272.627594,188.890503,111.059006,129.700211,236.885406,102.555305
333,0,346.568451,148.227737,38.295502,324.081573,170.852661,86.844948,274.116425,188.011719,109.932152,131.005417,236.441452,101.505035
334,0,347.268738,147.325073,36.623161,325.008118,170.004562,85.330978,275.179291,187.205322,108.717758,132.047333,236.187454,100.728722
335,0,347.704010,146.340790,35.022285,325.875488,169.121033,83.886414,276.171539,186.334183,107.570778,133.196548,235.786331,99.681686
336,0,347.772583,145.210312,33.079601,326.625916,168.219788,82.377922,277.170959,185.530350,106.506317,134.558105,235.229568,98.309944
337,0,346.827209,144.298874,30.712744,327.313934,167.138763,80.883766,278.056000,184.787643,105.494102,135.607666,234.862305,97.195000
338,0,345.379120,143.639648,27.784046,327.796875,166.080017,79.262077,278.917877,184.114120,104.462646,136.541840,234.513580,96.106087
339,0,343.420929,142.901077,24.839123,328.214569,164.807816,77.679443,279.693451,183.392639,103.518448,137.719238,234.299942,94.970047
340,0,341.458771,142.260391,21.979128,328.472168,163.636108,75.984306,280.452637,183.154144,102.430283,138.371521,234.160919,93.840805
341,0,339.648163,141.752243,19.307766,328.561798,162.588516,74.371880,281.095581,182.704285,101.389748,139.091812,233.980545,92.658890
342,0,339.310150,141.337402,17.704227,328.780579,161.934830,73.169487,281.545685,182.230637,100.390121,140.205246,233.584396,91.162819
343,0,339.379913,140.795547,17.112000,329.143890,161.900665,72.780762,281.719696,182.021606,99.450562,140.573349,233.594223,89.990524
344,0,339.483643,139.970261,17.116518,329.278198,161.807831,72.701935,281.753571,182.165863,98.892883,141.112396,233.464020,88.712364
345,0,339.503143,138.876297,17.494101,329.034607,161.408234,72.847710,281.619354,182.197479,98.559364,141.522430,233.526978,87.569084
346,0,339.528595,138.090988,17.764475,328.709442,160.698669,73.152451,281.411285,182.071335,98.371780,141.928345,233.546188,86.592247
347,0,339.656342,137.359802,18.077744,328.391998,160.138733,73.291702,281.226776,181.914368,98.321518,142.137299,233.538666,85.921402
348,0,339.549072,136.628983,18.497677,328.248505,159.824081,73.404022,281.211456,181.949234,98.373718,142.303680,233.420898,85.446701
349,0,339.754395,136.221573,18.797123,328.263306,159.696655,73.507660,281.313019,181.934555,98.535347,142.471619,233.383362,85.153175
350,0,340.139465,135.989792,18.996614,328.362305,159.657471,73.556396,281.466797,181.909668,98.760757,142.669418,233.350708,84.999352
351,0,340.338806,135.845398,19.226597,328.460938,159.578705,73.633278,281.585541,181.843521,99.089737,142.860779,233.287277,85.037682
352,0,340.527405,135.790588,19.637001,328.490967,159.571793,73.820335,281.618805,181.799088,99.565887,142.945587,233.212982,85.254257
353,0,340.578705,135.765167,20.307632,328.435730,159.638809,74.333511,281.589722,181.789856,100.253525,142.843430,233.183136,85.662689
354,0,340.550873,135.779282,21.278517,328.252808,159.802597,75.114204,281.330872,181.656403,101.244743,142.669617,233.138718,86.177895
355,0,340.097931,135.650177,22.756678,327.959106,159.952591,76.281578,280.837891,181.877594,102.540649,142.244034,233.195023,86.874573
356,0,339.826233,135.593689,24.914619,327.253662,160.099258,78.136246,280.096405,182.150803,104.241875,141.466675,233.373459,87.828712
357,0,339.083557,135.399506,27.650343,326.154877,160.185745,80.602592,278.709747,182.484360,106.380836,140.509598,233.584488,88.865509
358,0,337.926575,135.106857,30.959717,324.705475,160.390717,83.558289,277.131195,182.993256,108.816483,139.255920,233.894409,90.066002
359,0,336.440369,134.856094,34.624203,322.850372,160.646591,86.861496,275.255524,183.568375,111.544731,137.498032,234.340332,91.526741
360,0,334.458282,134.518295,38.532658,320.507385,160.841278,90.457062,272.934845,184.186691,114.479012,135.355057,234.966827,93.042831
361,0,332.127014,134.141006,42.667656,317.812683,161.066650,94.225967,270.201324,184.817810,117.518143,132.890060,235.682663,94.587128
362,0,328.956146,133.694611,46.919647,314.612610,161.273407,98.013641,266.946136,185.573257,120.641556,130.276245,236.059311,95.885429
363,0,325.785675,133.361115,51.093388,310.958374,161.496597,101.849899,263.186005,186.085632,123.715424,126.701134,237.201202,97.743126
364,0,321.891205,133.050735,55.056374,306.872589,161.640945,105.441643,259.064575,186.747543,126.717163,123.421539,237.947189,99.073730
365,0,317.652161,133.189209,58.556396,302.453888,161.594330,108.840515,254.473007,187.269958,129.596817,119.173180,238.830673,100.537376
366,0,312.962189,133.315765,61.759850,297.785645,161.800659,111.805344,249.628311,187.918243,132.247269,115.034698,239.657074,101.675316
367,0,307.848175,133.738678,64.643654,292.503571,162.294647,114.630669,244.478333,188.532440,134.663010,109.656860,241.228455,103.443672
368,0,302.617554,133.928299,67.181313,286.910339,163.238892,117.094154,239.021286,189.264969,136.797379,105.142670,241.963257,104.055458
369,0,296.963562,134.309860,69.385574,281.199280,163.867462,119.148087,233.391586,190.185593,138.608673,99.216858,243.753052,105.461884
370,0,291.124207,134.870422,71.066658,275.258972,164.626556,120.731697,227.552368,191.175842,140.040894,94.245644,244.695343,105.679955
371,0,285.072632,135.424759,72.449524,269.351990,165.580841,121.963272,221.608139,192.345490,141.133789,88.214218,246.458206,106.374657
372,0,278.856781,136.637955,73.126106,263.120056,166.703339,122.749527,215.514542,193.626465,141.902893,82.188293,248.035278,106.565056
373,0,272.434814,137.644440,73.751907,256.851379,167.921021,123.256798,209.255859,195.017838,142.309113,76.111908,249.408478,106.355759
374,0,265.912628,138.840118,73.802254,250.475372,169.232086,123.341866,202.923538,196.421356,142.375671,69.585037,251.123642,106.196663
375,0,258.678711,139.962601,73.561974,244.035614,170.633667,123.025055,196.527390,197.875107,142.123306,63.234062,252.691574,105.660217
376,0,252.321869,141.192368,72.785538,237.542236,171.898407,122.325249,190.089233,199.186188,141.500061,56.588947,254.258865,105.046051
377,0,245.439468,142.313980,71.587990,230.932770,172.999176,121.318344,183.625153,200.397675,140.588745,49.541977,256.103302,104.342155
378,0,238.596542,143.344040,70.077797,224.383987,173.914261,120.035881,177.192581,201.533051,139.329559,43.279957,257.420776,103.222855
379,0,231.647690,144.327454,68.329414,217.892715,174.737000,118.462242,170.891174,202.678772,137.814514,36.880955,258.851471,102.052589
380,0,225.306427,145.398788,66.267281,211.636551,175.705048,116.586830,164.753479,203.759064,136.048615,30.402832,260.496216,101.058022
381,0,218.860901,146.657898,63.876762,205.540817,176.792419,114.461807,158.801666,204.876831,134.131378,24.244942,261.613922,99.529778
382,0,212.780670,147.832397,61.405262,199.650925,177.834396,112.128113,153.079544,205.954453,132.075699,18.382519,262.797302,98.070312
383,0,206.746796,149.004395,58.744526,193.999313,178.884567,109.605675,147.494247,207.031296,129.842468,12.458570,263.973480,96.598923
384,0,201.059814,150.204086,55.990372,188.528046,179.942154,106.995651,142.122437,208.066101,127.505180,6.690224,265.153259,95.183319
385,0,195.300278,151.273102,52.989014,183.126099,180.820496,104.288795,136.924820,209.014496,125.158760,1.347534,266.161133,93.577881
386,0,189.937088,152.292465,50.183796,177.966217,181.698334,101.588409,131.878296,209.851212,122.837532,-4.314321,267.519012,92.482651
387,0,184.509201,153.425690,47.320225,173.011688,182.594772,98.860626,127.080856,210.599564,120.535637,-9.012856,268.098999,90.695541
388,0,179.610733,154.624557,44.479969,168.269791,183.521393,96.267853,122.466751,211.382233,118.340294,-14.386864,269.318481,89.649025
389,0,175.076492,155.876663,41.909317,163.876785,184.441345,93.939384,118.091736,212.284119,116.251732,-18.727579,269.701721,87.918121
390,0,170.643417,156.995407,39.599712,159.699997,185.519669,91.657204,113.927650,213.196701,114.277992,-23.437422,270.669800,86.938622
391,0,166.497559,158.156540,37.258659,155.812454,186.561264,89.457359,110.103065,214.011505,112.381302,-27.741854,271.159210,85.556694
392,0,162.540878,159.158966,34.968575,152.187805,187.531860,87.338638,106.463676,214.820038,110.625702,-31.674639,271.716003,84.425674
393,0,158.463577,159.849731,33.015827,148.702286,188.265182,85.324257,103.150589,215.465912,108.931526,-35.545902,272.406982,83.639450
394,0,155.111191,160.561371,31.032089,145.449173,188.912689,83.498047,99.953484,216.056595,107.429077,-38.728142,272.459167,82.430153
395,0,151.530197,161.041214,29.446985,142.335983,189.456726,81.851738,96.954102,216.560471,106.069328,-42.432407,273.216736,81.982880
396,0,148.482956,161.580856,27.887779,139.406097,190.009949,80.416008,94.005333,216.970078,104.877945,-45.288681,273.159363,80.910881
397,0,145.404190,161.925293,26.841446,136.591171,190.525360,79.175941,91.198837,217.283936,103.867249,-48.572483,273.521179,80.455505
398,0,142.718201,162.263763,25.811659,133.881927,190.833969,78.216316,88.528824,217.471832,103.115273,-51.224899,273.355957,79.589523
399,0,140.221786,162.427582,25.250048,131.376114,190.898499,77.543808,85.955704,217.616196,102.457672,-53.836258,273.284760,78.955254
400,0,137.823700,162.570419,24.756966,128.982666,191.031128,77.121002,83.490746,217.634293,102.011475,-56.472481,273.190369,78.544312
401,0,135.760620,162.527512,24.512104,126.746758,191.074738,76.763680,81.200180,217.677307,101.661751,-58.893764,273.337769,78.320412
402,0,133.487686,162.331085,24.271673,124.680756,190.985565,76.424240,79.109665,217.593185,101.354065,-60.768475,272.874237,77.738945
403,0,131.328827,162.125137,23.832338,122.776405,190.731476,76.061836,77.265717,217.487427,101.073479,-62.481361,272.692596,77.397064
404,0,129.303101,161.851105,23.427710,120.976433,190.487671,75.597725,75.598465,217.211670,100.827965,-64.381241,272.647858,77.313904
405,0,127.494423,161.654617,23.008831,119.341362,190.157043,75.184631,73.986618,216.922226,100.625862,-65.873199,272.407166,77.098663
406,0,125.734612,161.822021,22.240217,117.800781,189.818314,74.865608,72.505386,216.560547,100.486687,-67.402687,272.165833,77.022964
407,0,124.115326,161.941544,21.641743,116.452866,189.538849,74.629898,71.092827,216.093307,100.372475,-69.053741,272.178223,77.223068
408,0,122.725960,162.146194,21.096344,115.226303,189.384933,74.252403,69.788506,215.699997,100.256485,-70.209442,271.540253,77.019814
409,0,121.421036,162.473770,20.429352,114.097794,189.194214,73.854095,68.659393,215.169556,100.118164,-71.343536,271.159058,77.147530
410,0,120.075447,162.865829,19.662859,113.095764,188.957611,73.482521,67.635841,214.720306,99.941635,-72.687531,270.869629,77.083984
411,0,119.316452,163.174393,18.904911,112.104919,188.733719,73.047455,66.594566,214.333084,99.668533,-74.256279,271.078461,77.127548
412,0,118.252922,163.570038,18.197227,111.169937,188.661057,72.601715,65.469902,214.103790,99.373161,-74.820297,270.411041,76.929886
413,0,117.303658,163.929657,17.480680,110.351448,188.639404,72.143661,64.640190,213.805725,99.096863,-75.730278,270.163910,76.775421
414,0,116.463196,164.100830,16.868931,109.599236,188.601257,71.698097,63.951233,213.629257,98.812744,-76.663361,270.081390,76.616425
415,0,115.713165,164.262909,16.267324,108.944801,188.551208,71.269112,63.378521,213.500458,98.534584,-77.321838,269.950714,76.413872
416,0,114.954338,164.449814,15.733658,108.411636,188.540573,70.792320,62.887074,213.187088,98.297905,-77.976631,269.925903,76.256973
417,0,114.335274,164.676315,15.055841,107.841568,188.456650,70.286049,62.322483,212.824188,97.976616,-79.171532,270.356689,76.306953
418,0,113.790421,164.815292,14.601613,107.317635,188.310059,69.994972,61.666393,212.345383,97.719673,-79.559456,269.907288,75.982559
419,0,113.159271,165.011688,14.204296,106.850075,188.209061,69.789505,61.111774,211.976044,97.597221,-80.525848,269.837189,76.024529
420,0,112.842506,165.031219,13.698480,106.464554,188.165695,69.408264,60.659584,211.577927,97.504410,-81.004684,269.375336,75.893127
421,0,112.434456,165.069046,13.525339,106.033325,187.920670,69.384323,60.026714,210.824173,97.516846,-81.244568,268.646790,75.768822
422,0,112.093727,165.767960,12.955707,105.707909,187.829269,69.108170,59.378494,209.787155,97.665649,-81.683243,268.176178,75.720604
423,0,111.599106,166.008133,12.860283,105.440018,187.863495,69.119835,58.759258,209.025146,97.844650,-82.107315,267.527008,75.763695
424,0,111.264931,166.445007,12.605321,104.978806,187.602402,69.256912,58.331299,208.697922,98.084900,-82.525192,266.974426,75.783684
425,0,110.859421,166.794250,12.336344,104.671417,187.539047,69.239777,58.012222,208.546326,98.261833,-83.110016,266.984009,76.010933
426,0,110.491959,167.166153,11.960899,104.506798,187.682587,68.998314,57.869625,208.439499,98.278183,-83.218704,266.803925,75.944733
427,0,110.561836,167.529037,11.795360,104.447250,188.043228,68.755013,57.795517,208.589996,98.216454,-83.217537,266.616333,75.663879
428,0,110.501984,167.971954,11.504988,104.403290,188.584961,68.366997,57.810989,208.987122,98.089256,-83.532051,266.831757,75.526375
429,0,110.481110,168.406876,10.960040,104.281204,189.059021,67.615761,57.852207,209.477768,97.862358,-83.849136,267.148346,75.391701
430,0,110.636780,168.783966,10.745308,104.296898,189.481262,67.252197,57.916016,209.975540,97.671234,-84.000313,267.359619,75.188400
431,0,110.774002,169.231415,10.929902,104.278412,190.412064,67.123772,57.837734,210.710892,97.659378,-84.251991,267.674744,75.034760
432,0,110.647369,169.421219,11.268610,104.183128,191.290558,67.026321,57.735748,211.441528,97.747009,-84.763176,268.255493,75.095161
433,0,110.927216,169.757385,11.479928,103.953644,191.827286,66.980080,57.530388,212.098022,97.878983,-84.739174,268.433380,74.854530
434,0,111.012947,169.851089,11.913826,103.580460,192.164459,66.989944,57.346394,212.683762,98.075882,-85.138817,268.982513,74.896713
435,0,110.935951,169.929123,12.458193,103.133224,192.538574,67.031830,57.077618,213.215530,98.359459,-85.485069,269.394806,74.959274
436,0,111.212418,170.226425,12.894776,102.627678,192.996933,67.061073,56.729954,213.622330,98.643387,-85.908936,269.809937,75.024971
437,0,111.186073,170.433167,13.489141,102.121811,193.316727,67.121742,56.339134,214.021362,98.997841,-86.350067,270.126373,75.091293
438,0,111.325035,170.765762,13.953226,101.593475,193.628662,67.177078,55.900200,214.367874,99.328712,-87.116600,270.541199,75.311302
439,0,111.550232,171.045624,14.631993,101.062485,193.973251,67.255180,55.481750,214.728058,99.696373,-87.625038,270.744080,75.361763
440,0,111.953857,171.445297,15.485931,100.487541,194.273712,67.384460,55.010727,215.074249,100.111252,-88.173378,270.808777,75.340866
441,0,112.434914,171.897446,16.393810,99.932182,194.602737,67.680313,54.492733,215.359283,100.569283,-88.508797,270.606964,75.162659
442,0,113.116096,172.627899,17.393242,99.447823,195.211380,68.259369,53.937080,215.511597,101.128136,-89.053032,270.462738,75.141891
443,0,113.569687,173.117661,18.697552,99.129868,195.646622,69.126663,53.297791,215.640594,101.771370,-89.690887,270.263672,75.112305
444,0,114.494873,173.670776,20.285461,98.765945,195.948761,70.196701,52.600571,215.680878,102.468582,-90.421745,270.022797,75.214149
445,0,114.943176,173.903091,22.020599,98.319542,195.861465,71.572342,51.736179,215.529053,103.282829,-91.186607,269.633118,75.412987
446,0,115.515999,174.013855,23.880953,97.612854,195.728043,73.084473,50.784382,215.099930,104.212059,-91.833214,268.961456,75.482544
447,0,116.114723,174.117081,25.928621,96.944366,195.233978,74.922554,49.602314,214.434998,105.358444,-92.682617,268.237000,75.828468
448,0,116.586853,173.867554,28.512144,96.133194,194.591949,77.023140,48.248947,213.511627,106.705452,-94.006554,267.563690,76.374947
449,0,116.790169,173.676544,31.150679,95.219398,193.933121,79.378326,46.722912,212.457153,108.211983,-94.809868,266.288422,76.555634
450,0,116.903252,173.042465,34.233547,94.218155,192.955612,82.014442,45.051872,211.181335,109.771858,-96.018814,265.238129,76.986671
451,0,117.147377,172.073288,37.615326,93.190971,191.681473,84.922302,43.249844,209.761322,111.404999,-97.565048,264.314514,77.780937
452,0,117.131935,170.373474,41.252354,91.997177,190.172592,87.972824,41.452309,208.212357,113.022530,-98.438698,262.800812,78.062393
453,0,116.872276,168.101944,44.821568,90.745667,188.309616,90.990128,39.618900,206.554428,114.627068,-99.681267,261.513580,78.645538
454,0,116.260117,165.317184,48.345303,89.353485,185.952362,93.981194,37.784260,204.687622,116.124168,-100.804482,260.052338,79.122910
455,0,115.443153,162.067169,51.688034,87.935509,183.283981,96.873680,36.025558,202.563690,117.576164,-101.843346,258.511139,79.575195
456,0,114.378799,158.289932,54.907883,86.420158,180.309662,99.577400,34.245907,200.142761,118.918175,-102.829185,256.674408,79.929420
457,0,113.369225,154.214005,57.822659,84.789841,177.006592,102.039925,32.627567,197.431641,120.124786,-103.680420,254.594330,80.169197
458,0,112.188889,149.460159,60.585384,83.144569,173.311707,104.215721,30.941961,194.360336,121.144928,-104.582413,252.347565,80.347031
459,0,110.919708,144.454514,63.173317,81.430000,169.216293,106.161545,29.286245,190.983490,121.925743,-105.561783,249.924301,80.545311
460,0,109.493919,138.917358,65.571480,79.714470,164.695755,107.779648,27.762436,187.142136,122.516251,-106.390007,247.245682,80.601181
461,0,108.167023,133.357254,67.568054,77.933708,159.701935,109.046631,26.196085,182.969009,122.904068,-107.208710,244.364319,80.651093
462,0,106.561241,127.372490,69.376854,76.046707,154.532516,110.088219,24.539040,178.471039,123.049538,-108.025269,241.260406,80.567520
463,0,104.928215,121.197090,70.787758,74.119522,149.097565,110.934334,22.957832,173.618256,123.064575,-108.727753,237.984406,80.398018
464,0,102.974472,114.696358,71.919121,72.012161,143.353607,111.479958,21.234800,168.534439,122.849709,-109.525063,234.727432,80.228943
465,0,100.783592,108.035492,72.794250,69.867317,137.340042,111.813141,19.535862,163.373657,122.504883,-110.197838,231.255539,79.751724
466,0,98.536140,101.278893,73.321503,67.667816,131.319550,111.867073,17.826082,158.213913,121.926849,-110.938034,228.130432,79.369392
467,0,96.336136,94.616531,73.566315,65.552734,125.252914,111.738480,16.332935,152.782913,121.148384,-111.346077,224.440903,78.493881
468,0,94.209496,88.037231,73.637321,63.412270,119.231270,111.306419,14.726972,147.883865,120.175507,-111.922676,221.087463,77.713905
469,0,92.150558,81.670876,73.372116,61.353832,113.383133,110.599365,13.134987,142.789810,118.967728,-112.431320,218.192062,77.061089
470,0,90.010872,75.427628,72.781654,59.396950,107.629311,109.585617,11.678537,137.554626,117.549332,-112.973106,215.668701,76.513977
471,0,88.455055,69.560425,72.005882,57.484680,102.070869,108.299965,10.174668,132.341187,115.982864,-113.540382,210.434906,75.024895
472,0,86.449036,63.722813,70.983772,55.615742,96.546448,106.794563,8.739202,127.327682,114.303383,-114.217216,207.062134,74.056145
473,0,84.649353,58.027027,69.778290,53.797325,91.209305,105.115913,7.477866,122.494392,112.573273,-114.833946,203.819031,73.145523
474,0,82.757370,52.595207,68.357849,52.090542,86.172485,103.291763,6.285491,117.933746,110.733574,-115.574921,202.101883,72.827408
475,0,80.778664,47.560432,66.779366,50.426395,81.464058,101.419144,5.149449,113.666077,108.850533,-115.936882,197.757309,71.091484
476,0,79.177216,42.820744,65.199196,48.916069,77.059196,99.455803,3.986676,109.620071,107.003014,-116.437263,194.909561,69.961792
477,0,77.143494,38.515263,63.377991,47.352352,73.023224,97.512924,2.772593,105.870392,105.198639,-117.033035,192.120728,68.746468
478,0,75.505371,34.566135,61.651825,45.798569,69.325386,95.701378,1.522515,102.472809,103.478371,-117.889709,191.154327,68.341423
479,0,73.712807,30.931791,59.922569,44.268898,65.909111,93.909622,0.349691,99.395294,101.775261,-118.337631,188.659988,67.196899
480,0,72.025909,27.658688,58.245571,42.774040,62.808342,92.195381,-0.865267,96.534805,100.124680,-118.960754,186.045425,65.833084
481,0,70.441536,24.714008,56.628326,41.344383,59.998558,90.540253,-2.068545,93.894714,98.515770,-119.751968,184.000778,64.631760
482,0,68.819527,22.089590,55.061234,40.005032,57.516392,88.942360,-3.300738,91.484077,96.948570,-120.899147,182.812454,63.769497
483,0,67.341446,19.668825,53.711956,38.682137,55.330879,87.422371,-4.469984,89.401947,95.380165,-121.579926,180.327972,62.371574
484,0,65.946671,17.468893,52.367989,37.351116,53.426147,85.929092,-5.554648,87.633492,93.787636,-122.555725,179.436539,61.508354
485,0,64.524193,15.704919,50.862000,36.144962,51.864174,84.392380,-6.480931,86.248039,92.237671,-123.308739,177.525604,60.160225
486,0,63.446106,14.308832,49.464500,35.175003,50.628517,82.854286,-7.223047,85.184158,90.767441,-124.275070,177.200821,59.379593
487,0,62.483074,13.475428,47.826004,34.388622,49.826923,81.244408,-7.889289,84.380646,89.307899,-124.984100,175.694794,58.152332
488,0,61.966263,13.054937,46.162636,33.815044,49.377914,79.622849,-8.547927,83.692436,87.876495,-125.950562,174.904083,57.155907
489,0,61.569595,12.886786,44.511585,33.348438,49.154995,78.014832,-9.128756,83.158966,86.465973,-126.921204,174.035248,56.152222
490,0,61.214527,13.020342,42.834274,32.946140,49.159817,76.437569,-9.737784,82.794746,84.960823,-127.800270,173.547958,55.293152
491,0,60.961967,13.314738,41.136066,32.580921,49.329067,74.819153,-10.440717,82.553055,83.361343,-128.614929,172.877594,54.228558
492,0,60.410118,13.680178,39.200268,32.198872,49.621181,73.131149,-11.027719,82.531746,81.788666,-129.579788,173.097382,53.525257
493,0,59.990715,14.034477,37.370869,31.777113,49.945591,71.431168,-11.795644,82.548584,80.089134,-130.366409,172.323761,52.359722
494,0,59.338802,14.303967,35.469593,31.219570,50.248478,69.670326,-12.476038,82.615952,78.538437,-131.261017,172.665970,51.614185
495,0,58.563091,14.614204,33.339218,30.650299,50.384232,67.862114,-13.203138,82.680801,76.986435,-131.992935,172.688477,50.888962
496,0,57.561760,14.819600,31.106712,29.862728,50.456535,65.900490,-13.879742,82.623711,75.438576,-133.158432,173.088837,50.121830
497,0,56.636749,14.846755,28.715614,29.174088,50.424301,63.920609,-14.593780,82.477791,73.886986,-133.938721,172.967438,49.259602
498,0,55.561008,14.889995,26.094849,28.422174,50.264915,61.808979,-15.302196,82.279373,72.228912,-134.698898,172.945816,48.445545
499,0,54.918987,14.566681,25.116901,27.781799,50.130936,60.143356,-15.958251,82.103493,70.570824,-135.379028,172.821991,47.544231
500,0,54.856052,14.813569,25.207779,26.797434,50.517406,59.845200,-16.879822,82.170654,69.103859,-136.041794,172.698975,46.630093
501,0,54.661186,15.276767,25.265661,26.091639,51.148670,59.327057,-18.100695,82.351463,68.033813,-136.570633,172.612183,45.741936
502,0,54.348991,15.640831,25.269318,25.676579,51.839592,58.813313,-18.962435,82.719498,67.325981,-137.105255,172.512894,44.897015
503,0,53.853146,15.840493,25.237293,25.216007,52.435570,58.479137,-19.444170,83.217072,66.797539,-137.669571,172.428909,44.255913
504,0,53.339348,15.989601,25.155510,24.706394,52.616547,58.224281,-19.822680,83.582718,66.362961,-138.075058,172.326935,43.849094
505,0,53.066208,16.090237,25.097849,24.312271,52.742939,58.055634,-20.137720,83.674004,66.003288,-138.646744,172.728104,43.740555
506,0,52.891991,16.216867,25.079100,24.098461,52.944221,57.910221,-20.578791,83.713921,65.801010,-138.953476,172.494034,43.640324
507,0,52.753464,16.293550,25.070671,23.959503,53.045074,57.837196,-20.791981,83.664139,65.770027,-139.099518,172.343109,43.684444
508,0,52.685307,16.311844,25.037607,23.850697,53.047565,57.815292,-20.903481,83.564606,65.847885,-139.242493,172.121872,43.791801
509,0,52.706745,16.330444,25.037891,23.775377,52.961678,57.777081,-21.022943,83.359039,65.932632,-139.389236,171.926926,43.973640
510,0,52.842155,16.315235,24.990162,23.838894,52.910381,57.787292,-21.087242,83.084908,66.016357,-139.395187,171.741745,44.243801
511,0,52.972031,16.267656,25.011490,23.966969,52.847466,57.755646,-21.113785,82.882492,66.113014,-139.387405,171.532455,44.455093
512,0,53.163120,16.225101,24.986135,24.056257,52.783920,57.779266,-21.077126,82.627892,66.181816,-139.332520,171.353470,44.638195
513,0,53.343987,16.215971,24.954666,24.212845,52.806396,57.768982,-21.079884,82.383667,66.201683,-139.199097,171.206909,44.837646
514,0,53.470005,16.208635,24.963331,24.299444,52.821892,57.796780,-21.105396,82.198845,66.252914,-139.149841,171.171036,45.004215
515,0,53.492645,16.235046,24.945166,24.354744,52.829662,57.802834,-21.166708,82.014603,66.279640,-139.097076,171.109009,45.131603
516,0,53.580555,16.258190,24.932945,24.418911,52.887432,57.832436,-21.167957,81.961929,66.304466,-139.042130,171.119659,45.289413
517,0,53.716503,16.275919,24.945900,24.506884,52.947334,57.862190,-21.163994,81.956673,66.379822,-138.956573,171.118134,45.334606
518,0,53.670528,16.352753,24.907646,24.573235,53.050133,57.865482,-21.160088,81.935005,66.461403,-138.815445,171.200958,45.403282
519,0,53.721638,16.433357,24.913975,24.669207,53.141922,57.869217,-21.104342,81.961906,66.542862,-138.665070,171.351120,45.516747
520,0,53.837555,16.494484,24.962784,24.769178,53.253197,57.862808,-21.060982,82.023293,66.620949,-138.529449,171.467773,45.624504
521,0,53.802132,16.540653,24.902914,24.898163,53.330811,57.849274,-20.944702,82.095337,66.688591,-138.360031,171.577515,45.707058
522,0,53.873264,16.551798,24.884846,24.996841,53.415905,57.815163,-20.842932,82.155434,66.723175,-138.156891,171.733398,45.794025
523,0,53.929981,16.573048,24.873447,25.110292,53.480713,57.799408,-20.743330,82.183609,66.744972,-138.062897,171.892090,45.933228
524,0,54.073139,16.593521,24.909601,25.221176,53.539104,57.820541,-20.636040,82.260689,66.780563,-137.858414,171.976913,46.005955
525,0,54.001812,16.550716,24.910841,25.326729,53.567085,57.806889,-20.532646,82.306282,66.782829,-137.725739,172.088699,46.080502
526,0,54.143311,16.529295,24.944366,25.398771,53.574955,57.810093,-20.431492,82.290588,66.843170,-137.594009,172.175766,46.200081
527,0,54.198563,16.502924,24.913311,25.450207,53.501366,57.891697,-20.404621,82.261246,66.937782,-137.548721,172.212830,46.345646
528,0,54.237118,16.469957,24.927992,25.466379,53.469669,57.947598,-20.379539,82.186974,67.038406,-137.477249,172.261078,46.514412
529,0,54.253021,16.465805,24.916937,25.541225,53.389977,58.008850,-20.355553,82.101463,67.147079,-137.457230,172.265656,46.650459
530,0,54.332516,16.454906,24.908539,25.600506,53.347607,58.050266,-20.296480,82.027100,67.219475,-137.385025,172.236816,46.739410
531,0,54.308064,16.432613,24.880800,25.646023,53.293686,58.087910,-20.276285,81.954834,67.332214,-137.340225,172.228256,46.879822
532,0,54.330803,16.369358,24.888298,25.655277,53.226753,58.162521,-20.252628,81.926155,67.370865,-137.264832,172.277664,46.944302
533,0,54.341324,16.352289,24.881554,25.697510,53.234032,58.213760,-20.235929,81.935806,67.401482,-137.267502,172.316711,46.970737
534,0,54.399048,16.375435,24.885498,25.724848,53.268677,58.209023,-20.254137,81.986076,67.377022,-137.195908,172.345184,46.967587
535,0,54.372948,16.386808,24.854773,25.703455,53.333401,58.187012,-20.240625,82.005638,67.310135,-137.162079,172.435135,46.905457
536,0,54.400330,16.368629,24.888000,25.647434,53.374886,58.168392,-20.223927,82.016975,67.247398,-137.183609,172.431534,46.862804
537,0,54.417324,16.381481,24.871441,25.621784,53.467686,58.113194,-20.224627,82.119019,67.145668,-137.182968,172.544266,46.888145
538,0,54.381508,16.367859,24.890675,25.574945,53.525490,58.070339,-20.184963,82.179230,67.107307,-137.246750,172.643127,46.950569
539,0,54.359825,16.383762,24.916792,25.460579,53.533264,58.011265,-20.244547,82.143944,67.121689,-137.396820,172.738922,47.111649
540,0,54.311878,16.368189,24.926781,25.578594,53.264278,58.026020,-20.335701,82.066566,67.196342,-137.609711,172.905304,47.454597
541,0,54.065701,16.348490,24.925243,25.428768,53.161854,58.071754,-20.383505,81.980850,67.333389,-137.835922,173.049103,47.793282
542,0,54.086769,16.360737,24.986162,25.345884,53.083317,58.156521,-20.401890,81.932686,67.465141,-138.073715,173.202698,48.129932
543,0,53.892445,16.402941,25.021963,25.230747,53.046215,58.206524,-20.497837,81.968010,67.631210,-138.243362,173.437820,48.461983
544,0,53.874687,16.436436,25.050112,25.118862,53.043076,58.265282,-20.607876,82.015335,67.812050,-138.400177,173.541916,48.677784
545,0,53.565914,16.488598,24.944984,24.994181,53.183086,58.386517,-20.703104,82.117989,68.015160,-138.540924,173.799683,48.898159
546,0,53.302986,16.518368,24.962212,24.837101,53.233131,58.408974,-20.781141,82.246788,68.131149,-138.699234,173.994461,49.033318
547,0,53.105896,16.575188,24.929089,24.534086,53.269405,58.258514,-20.850046,82.465645,68.149940,-138.767395,174.170319,49.045990
548,0,52.994522,16.578123,24.941685,24.307020,53.409283,58.252010,-20.914379,82.584091,68.000168,-138.838928,174.368134,49.024498
549,0,52.972965,16.621323,24.955688,24.361023,53.534935,58.248611,-20.914213,82.739243,67.829567,-138.845535,174.562073,48.985298
550,0,52.934387,16.701199,24.935656,24.368769,53.639343,58.143688,-20.900227,82.965057,67.608330,-138.877625,174.754150,48.945347
551,0,52.879353,16.756613,24.951122,24.316622,53.794533,58.013897,-20.894077,83.159782,67.414444,-138.914291,174.945770,48.903221
552,0,52.839855,16.808077,24.981499,24.218798,53.890930,57.933918,-20.876202,83.361519,67.334496,-138.962341,175.197662,48.938702
553,0,52.806183,16.890837,24.982805,24.242460,54.035660,57.815952,-20.886877,83.522598,67.231873,-139.026154,175.382462,48.937477
554,0,52.792774,16.989176,24.980661,24.221786,54.179066,57.690014,-20.840233,83.655052,67.238663,-139.096970,175.566940,49.019985
555,0,52.760056,17.013868,24.991646,24.172285,54.229275,57.600636,-20.834337,83.727486,67.263077,-139.177933,175.651230,49.082970
556,0,52.709312,17.053492,25.041878,24.136457,54.234787,57.602192,-20.848967,83.780441,67.313911,-139.241760,175.759842,49.182564
557,0,52.671562,17.089230,25.025787,24.092512,54.222458,57.573753,-20.919659,83.771088,67.408287,-139.349808,175.808319,49.245045
558,0,52.630844,17.134172,25.041801,24.012985,54.203651,57.616474,-20.974279,83.748268,67.487671,-139.441025,175.801025,49.231640
559,0,52.521755,17.181868,25.088717,23.918087,54.167007,57.637356,-21.136784,83.718369,67.532997,-139.542618,175.770798,49.228203
560,0,52.460361,17.187662,25.016743,23.810650,54.182926,57.743500,-21.284513,83.665939,67.576256,-139.594315,175.712830,49.154953
561,0,52.307148,17.166040,24.990997,23.694107,54.115742,57.803535,-21.440954,83.575974,67.575386,-139.732132,175.593567,49.049828
562,0,52.203342,17.136904,24.966801,23.656006,54.112907,57.597057,-21.616106,83.454521,67.488319,-139.789230,175.434479,48.902439
563,0,52.146427,17.101620,24.935635,23.485146,54.029209,57.591934,-21.794128,83.309448,67.420876,-139.936478,175.285828,48.834312
564,0,52.068031,17.115095,24.931913,23.406574,53.971294,57.594688,-21.981981,83.213638,67.339310,-140.070145,175.166595,48.720146
565,0,51.937168,17.003193,25.079107,23.192604,53.964104,57.646210,-22.099155,83.151978,67.251274,-140.203705,175.049820,48.582073
566,0,51.847595,17.028105,25.079033,23.031134,53.953308,57.474747,-22.216396,83.164833,67.183975,-140.309280,174.931946,48.436314
567,0,51.822506,17.062347,25.084227,22.961548,53.983368,57.434269,-22.303129,83.192375,67.118881,-140.449539,174.855850,48.276276
568,0,51.700039,17.072912,25.014727,22.957785,54.039082,57.417381,-22.316429,83.230988,67.077118,-140.560699,174.779205,48.139618
569,0,51.643517,17.124447,24.923063,22.836950,54.112389,57.395321,-22.369314,83.358727,66.997406,-140.672882,174.763748,47.959507
570,0,51.665169,17.197403,24.941326,22.819656,54.121674,57.339844,-22.437912,83.443916,66.875900,-140.736008,174.675934,47.751827
571,0,51.705353,17.284891,24.874348,22.789978,54.250713,57.266582,-22.519876,83.558388,66.737129,-140.843063,174.598694,47.511524
572,0,51.591366,17.252337,25.021797,22.756443,54.389565,57.168945,-22.575811,83.627251,66.602768,-140.960068,174.586044,47.346977
573,0,51.569809,17.300163,25.024477,22.787666,54.463657,57.211918,-22.636564,83.721054,66.485466,-141.051559,174.522339,47.140846
574,0,51.587452,17.367182,24.999851,22.719534,54.523811,57.162460,-22.722815,83.749718,66.367973,-141.131317,174.409622,46.920586
575,0,51.629131,17.440590,24.891510,22.691105,54.566505,57.099026,-22.793476,83.730209,66.239159,-141.253815,174.310074,46.745510
576,0,51.573826,17.475359,24.952803,22.618773,54.650013,57.037472,-22.858385,83.746460,66.094727,-141.304153,174.170319,46.520802
577,0,51.555019,17.512028,24.934109,22.529600,54.651676,56.967491,-22.991922,83.810097,65.958000,-141.370270,174.078461,46.349136
578,0,51.565018,17.524435,24.928843,22.501032,54.740532,56.937069,-23.081129,83.844452,65.843712,-141.546982,173.998947,46.095592
579,0,51.570282,17.572849,24.881084,22.496332,54.814354,56.888596,-23.127865,83.892220,65.705910,-141.670212,173.946365,45.895714
580,0,51.590694,17.614500,24.896477,22.457783,54.862938,56.831863,-23.174360,83.939117,65.588860,-141.631927,173.872833,45.786095
581,0,51.569420,17.679281,24.846304,22.450933,54.979542,56.756214,-23.220207,84.078796,65.440918,-141.720367,173.842789,45.607738
582,0,51.597923,17.689802,24.856022,22.439117,55.072983,56.688198,-23.210009,84.171776,65.305634,-141.715302,173.849594,45.457253
583,0,51.565750,17.736485,24.866796,22.455978,55.142590,56.610588,-23.205439,84.270691,65.163696,-141.798752,173.835342,45.308594
584,0,51.572399,17.766815,24.866444,22.512129,55.265831,56.571865,-23.171772,84.374359,65.046188,-141.777878,173.838089,45.164471
585,0,51.549110,17.824341,24.867342,22.501059,55.351631,56.542477,-23.153606,84.464279,64.965660,-141.799301,173.838516,45.018635
586,0,51.555168,17.895681,24.885180,22.516449,55.446220,56.507935,-23.206188,84.608620,64.873756,-141.821701,173.863007,44.855045
587,0,51.571419,17.923283,24.878521,22.547373,55.563179,56.455711,-23.143005,84.714668,64.797722,-141.813339,173.887131,44.742958
588,0,51.613922,17.980217,24.843853,22.506845,55.626152,56.273216,-23.043459,84.780670,64.747414,-141.831177,173.903442,44.610485
589,0,51.515617,17.983906,24.819235,22.562815,55.719353,56.217556,-23.047668,84.920883,64.677361,-141.805756,173.910873,44.532841
590,0,51.617870,18.018242,24.851297,22.582357,55.746532,56.208347,-23.034243,84.931168,64.624809,-141.747879,173.858948,44.407604
591,0,51.581490,18.026163,24.845087,22.586048,55.779701,56.208721,-23.043108,84.976669,64.556480,-141.743958,173.804459,44.287865
592,0,51.585201,18.019390,24.798874,22.683025,55.817272,56.318306,-23.015341,84.966164,64.510994,-141.720978,173.785767,44.201107
593,0,51.667038,18.010796,24.830070,22.742588,55.853111,56.317368,-22.968491,85.030632,64.498436,-141.692169,173.773102,44.145874
594,0,51.643253,18.038511,24.773623,22.789127,55.897758,56.297379,-22.934101,85.069626,64.432167,-141.660019,173.783035,44.084034
595,0,51.648102,18.070177,24.774027,22.867128,55.978016,56.275288,-22.856232,85.173553,64.351250,-141.581863,173.780258,43.973244
596,0,51.691029,18.084660,24.765535,22.958344,56.067047,56.240906,-22.758095,85.301857,64.290031,-141.498215,173.814453,43.857994
597,0,51.715317,18.095406,24.782755,22.996887,56.141651,56.233719,-22.674601,85.439308,64.259148,-141.399704,173.840378,43.642441
598,0,51.774124,18.124207,24.779716,23.103043,56.227154,56.221581,-22.584702,85.526123,64.191116,-141.232834,173.863968,43.504662
599,0,51.810223,18.150276,24.765610,23.186480,56.307480,56.209106,-22.537802,85.620239,64.153381,-141.189011,173.923553,43.382034
600,0,51.812737,18.139894,24.778387,23.223091,56.393528,56.185276,-22.477503,85.724510,64.083328,-141.110489,173.917221,43.264626
601,0,51.813377,18.213076,24.737602,23.296297,56.478638,56.176044,-22.439491,85.836906,64.015434,-141.046677,173.933228,43.154102
602,0,51.856075,18.201544,24.752489,23.283976,56.504147,56.183708,-22.420317,85.853760,63.975403,-141.008102,173.981003,43.077919
603,0,51.802284,18.234264,24.733833,23.279659,56.497612,56.180389,-22.442795,85.876976,63.932209,-140.979553,173.848175,42.937416
604,0,51.799702,18.204193,24.748150,23.260643,56.476894,56.196629,-22.525717,85.837257,63.884125,-140.961243,173.821915,42.917850
605,0,51.800739,18.197186,24.721140,23.211325,56.447853,56.183151,-22.525320,85.819992,63.871922,-141.046921,173.830490,42.873425
606,0,51.804535,18.183802,24.726501,23.205738,56.445255,56.164406,-22.555889,85.785721,63.838623,-141.050064,173.798691,42.849396
607,0,51.767498,18.183674,24.737329,23.176552,56.428429,56.170395,-22.581617,85.753357,63.838825,-141.036667,173.799759,42.854141
608,0,51.758884,18.199522,24.733740,23.188566,56.421513,56.201035,-22.599628,85.779762,63.841328,-141.107529,173.785141,42.828983
609,0,51.759823,18.210865,24.718805,23.180452,56.451302,56.172951,-22.595997,85.747581,63.843838,-141.108948,173.779099,42.825188
610,0,51.743736,18.227146,24.729908,23.188818,56.514114,56.159367,-22.587015,85.820580,63.825645,-141.104126,173.794937,42.790417
611,0,51.782681,18.258312,24.731031,23.220110,56.603336,56.114071,-22.566259,85.899513,63.767693,-141.054276,173.802277,42.733849
612,0,51.785595,18.315828,24.708677,23.246613,56.638988,56.068741,-22.531204,85.965363,63.731091,-141.052460,173.867477,42.669952
613,0,51.807842,18.315058,24.709311,23.218885,56.679073,56.044987,-22.540546,86.042702,63.698769,-141.100906,173.903275,42.577751
614,0,51.766594,18.325073,24.697893,23.200453,56.714443,56.006588,-22.562332,86.046112,63.651329,-141.038651,173.949265,42.556606
615,0,51.742699,18.355257,24.695238,23.172009,56.715122,56.013069,-22.638281,86.024246,63.608192,-141.084259,173.926132,42.475986
616,0,51.704182,18.320139,24.709532,23.119680,56.633934,56.019547,-22.680775,86.005722,63.604481,-141.054291,173.890564,42.425289
617,0,51.599579,18.323738,24.728664,23.042048,56.646416,56.009209,-22.794062,85.951462,63.593693,-141.149063,173.881409,42.361683
618,0,51.555508,18.303596,24.737743,22.964811,56.546608,56.057705,-22.900381,85.873711,63.613823,-141.217819,173.819427,42.341469
619,0,51.588280,18.285566,24.765329,22.878630,56.455696,56.087421,-23.007339,85.785896,63.655800,-141.217636,173.759598,42.317127
620,0,51.584408,18.241154,24.796370,22.819160,56.383507,56.100746,-23.109209,85.715271,63.692822,-141.215378,173.671661,42.289261
621,0,51.500484,18.273054,24.755121,22.772823,56.346333,56.116905,-23.157440,85.662376,63.701763,-141.245590,173.620224,42.277733
622,0,51.479565,18.252682,24.792747,22.721123,56.315598,56.157932,-23.223131,85.599792,63.793159,-141.331192,173.580505,42.287605
623,0,51.476849,18.273623,24.807383,22.703249,56.282505,56.184074,-23.262964,85.545097,63.811146,-141.327728,173.539337,42.275646
624,0,51.440639,18.274666,24.794077,22.709755,56.272327,56.177299,-23.264271,85.531776,63.820919,-141.382523,173.523895,42.306831
625,0,51.463940,18.293644,24.789764,22.713949,56.294613,56.148598,-23.290003,85.526344,63.817024,-141.340775,173.505676,42.277882
626,0,51.486694,18.243591,24.787012,22.699190,56.288017,56.164219,-23.279442,85.520042,63.812733,-141.374741,173.489304,42.261856
627,0,51.615040,18.216021,24.842268,22.689730,56.284420,56.151340,-23.263521,85.514824,63.768738,-141.347641,173.506104,42.208874
628,0,51.502674,18.274332,24.789457,22.750637,56.369427,56.132542,-23.227793,85.565147,63.707108,-141.376328,173.472763,42.139626
629,0,51.619007,18.315609,24.788816,22.823069,56.450066,56.049423,-23.147175,85.662453,63.609169,-141.352173,173.510635,42.106617
630,0,51.635815,18.322563,24.779299,22.877848,56.585995,55.983608,-23.049126,85.780670,63.496857,-141.325745,173.564453,42.026737
631,0,51.634430,18.347521,24.767788,22.864082,56.670597,55.884121,-23.037241,85.880676,63.391930,-141.345581,173.577637,41.934921
632,0,51.579185,18.389605,24.757523,22.878437,56.735603,55.837852,-23.039440,85.980049,63.261471,-141.337738,173.604401,41.880924
633,0,51.628384,18.375540,24.762068,22.888161,56.815609,55.777267,-23.005163,86.078384,63.174992,-141.397934,173.635849,41.816959
634,0,51.620792,18.408831,24.753593,22.854824,56.858337,55.719090,-23.026018,86.155029,63.110298,-141.384186,173.686417,41.800045
635,0,51.541348,18.438377,24.743525,22.852787,56.873821,55.706882,-23.045801,86.145538,63.078732,-141.437897,173.661713,41.802349
636,0,51.492805,18.453960,24.737137,22.785912,56.894684,55.702053,-23.089556,86.135483,63.045166,-141.497223,173.696213,41.768162
637,0,51.507156,18.443188,24.708986,22.728439,56.888390,55.675961,-23.165878,86.158432,63.003494,-141.570572,173.651276,41.753212
638,0,51.595959,18.416277,24.759068,22.704418,56.860352,55.653522,-23.206001,86.115158,63.021362,-141.588638,173.608459,41.751225
639,0,51.532887,18.419918,24.765293,22.671858,56.806454,55.691177,-23.236267,86.053398,63.033024,-141.643539,173.586029,41.756393
640,0,51.542728,18.400566,24.785433,22.621414,56.818161,55.727680,-23.273245,86.012253,63.079319,-141.671173,173.555878,41.789642
641,0,51.460201,18.434877,24.791348,22.620665,56.786835,55.741322,-23.279921,85.989258,63.107922,-141.704941,173.528763,41.793926
642,0,51.529869,18.406898,24.822104,22.627283,56.746510,55.746628,-23.261799,85.960648,63.126423,-141.641068,173.529617,41.818623
643,0,51.576435,18.398821,24.822596,22.668592,56.764309,55.782398,-23.257643,85.943298,63.142395,-141.674759,173.465973,41.817928
644,0,51.562271,18.373678,24.810953,22.696230,56.771053,55.781055,-23.249929,85.928452,63.189678,-141.655289,173.410583,41.807354
645,0,51.582565,18.370605,24.827650,22.722654,56.743698,55.785328,-23.218670,85.970375,63.209095,-141.656372,173.407837,41.829453
646,0,51.589630,18.362911,24.789646,22.744606,56.740776,55.785347,-23.207016,85.933975,63.208260,-141.688309,173.366562,41.856018
647,0,51.467014,18.389620,24.712790,22.732979,56.737091,55.789112,-23.195669,85.920197,63.214348,-141.660446,173.380981,41.856297
648,0,51.470242,18.376228,24.716734,22.743904,56.742386,55.786228,-23.178251,85.884209,63.197426,-141.700104,173.338776,41.855846
649,0,51.600586,18.353064,24.746525,22.737417,56.739048,55.739010,-23.170952,85.896561,63.187263,-141.699860,173.340790,41.860287
650,0,51.526188,18.395084,24.712936,22.740065,56.743195,55.748009,-23.159203,85.897621,63.184299,-141.725067,173.366302,41.859489
651,0,51.544907,18.394085,24.716034,22.765299,56.758011,55.759098,-23.152546,85.943092,63.174480,-141.695984,173.353714,41.914528
652,0,51.568432,18.429646,24.719418,22.772905,56.780937,55.744667,-23.145098,85.956062,63.151142,-141.746948,173.422226,41.992065
653,0,51.612530,18.416698,24.757704,22.777689,56.787392,55.753170,-23.142124,85.981369,63.167431,-141.784286,173.461777,42.035439
654,0,51.613937,18.410374,24.768354,22.822105,56.800598,55.736626,-23.097536,85.956932,63.198833,-141.750488,173.439713,42.035919
655,0,51.559532,18.426796,24.754646,22.835915,56.770821,55.781303,-23.056248,85.989273,63.223473,-141.720779,173.438538,42.089817
656,0,51.643887,18.404730,24.746061,22.878042,56.799244,55.760357,-23.037287,85.976990,63.251385,-141.674927,173.455414,42.076481
657,0,51.663292,18.374237,24.747660,22.933203,56.800922,55.781960,-22.954391,86.032181,63.235165,-141.653381,173.480499,42.098576
658,0,51.702030,18.398058,24.767031,22.976883,56.804852,55.779778,-22.924017,86.035767,63.260899,-141.610870,173.459259,42.098282
659,0,51.649620,18.403881,24.737669,22.967783,56.824505,55.776199,-22.872883,86.020554,63.287205,-141.638947,173.485886,42.119171
660,0,51.715012,18.405924,24.729609,22.989981,56.806732,55.796383,-22.880943,86.030518,63.275032,-141.612091,173.453751,42.143726
661,0,51.704205,18.395338,24.759394,23.015429,56.772388,55.797970,-22.873936,86.009789,63.319138,-141.577072,173.484421,42.209713
662,0,51.701515,18.398287,24.740883,23.013388,56.780296,55.785896,-22.858538,85.994858,63.322880,-141.615875,173.446228,42.209152
663,0,51.634224,18.375326,24.727196,22.980471,56.765713,55.791046,-22.900452,85.976967,63.312351,-141.648605,173.367493,42.212070
664,0,51.680470,18.385099,24.726398,22.968344,56.759262,55.798244,-22.938911,85.951927,63.317387,-141.677063,173.401764,42.270851
665,0,51.668591,18.377062,24.736364,22.929790,56.747833,55.785809,-22.953939,85.972626,63.302250,-141.785019,173.346970,42.205254
666,0,51.676617,18.374983,24.746914,22.906340,56.775135,55.778301,-22.956621,85.944267,63.294949,-141.838760,173.278702,42.188087
667,0,51.639408,18.398098,24.725857,22.916368,56.787460,55.767960,-23.022526,85.942093,63.285820,-141.837830,173.269958,42.152473
668,0,51.636307,18.403547,24.722052,22.880884,56.774300,55.747547,-23.063614,85.938194,63.255310,-141.884888,173.230331,42.121517
669,0,51.567657,18.420206,24.739363,22.851233,56.779369,55.753441,-23.080519,85.935028,63.260437,-141.920578,173.223251,42.133511
670,0,51.587513,18.440395,24.719271,22.841505,56.799767,55.769760,-23.118347,85.889801,63.287430,-141.957901,173.196991,42.123089
671,0,51.599991,18.424633,24.734049,22.816130,56.790287,55.782234,-23.128372,85.897820,63.300194,-141.984680,173.146118,42.087730
672,0,51.593575,18.428391,24.763355,22.815207,56.797127,55.791145,-23.128382,85.888794,63.330860,-141.995499,173.135620,42.087589
673,0,51.591862,18.429487,24.763161,22.823917,56.791058,55.803436,-23.129004,85.889671,63.328861,-142.016464,173.092590,42.081371
674,0,51.605225,18.455326,24.735065,22.832413,56.805351,55.765285,-23.128883,85.889656,63.329868,-142.033417,173.075989,42.095577
675,0,51.616550,18.455757,24.734438,22.869476,56.827469,55.756645,-23.097393,85.929733,63.340313,-142.060928,173.023605,42.077065
676,0,51.613262,18.463045,24.742031,22.863125,56.824375,55.815395,-23.085890,85.930992,63.364029,-142.069855,173.034958,42.100578
677,0,51.634529,18.461430,24.764492,22.892220,56.840332,55.813522,-23.084965,85.878922,63.378609,-142.069687,172.998199,42.085728
678,0,51.642918,18.465485,24.766712,22.906315,56.835842,55.818382,-23.098934,85.878456,63.359684,-142.060654,172.962372,42.078922
679,0,51.652210,18.459974,24.768400,22.907539,56.841557,55.794888,-23.073975,85.900703,63.354431,-142.061157,172.930725,42.038223
680,0,51.642178,18.461180,24.768248,22.907120,56.844231,55.793262,-23.105387,85.888542,63.342743,-142.071045,172.917816,42.029232
681,0,51.650703,18.465710,24.756470,22.888062,56.843437,55.791893,-23.095497,85.877831,63.354954,-142.077118,172.872803,42.033691
682,0,51.651459,18.465239,24.756962,22.886778,56.843655,55.794411,-23.100088,85.881653,63.348339,-142.122818,172.880966,42.052948
683,0,51.660847,18.460844,24.761791,22.869068,56.829620,55.787506,-23.106609,85.889015,63.329144,-142.080093,172.866638,42.038605
684,0,51.663605,18.476105,24.748741,22.877153,56.864105,55.740025,-23.111137,85.915085,63.306309,-142.115997,172.869858,42.045544
685,0,51.636475,18.487438,24.757704,22.866316,56.879112,55.733517,-23.113514,85.925568,63.294159,-142.120453,172.904800,42.088593
686,0,51.570953,18.504311,24.736467,22.850077,56.874454,55.718262,-23.115488,85.936378,63.271305,-142.184402,172.940506,42.091923
687,0,51.700558,18.510384,24.777685,22.871399,56.902645,55.704826,-23.107927,85.941734,63.266083,-142.144287,172.936874,42.068058
688,0,51.651249,18.513542,24.739761,22.917198,56.927761,55.700157,-23.071728,85.965698,63.248039,-142.194122,172.922028,42.093185
689,0,51.631069,18.527117,24.738060,22.937542,56.951954,55.709839,-23.047575,85.994957,63.243778,-142.166397,172.932327,42.088879
690,0,51.651752,18.520792,24.743097,22.939095,56.993233,55.701321,-23.013687,86.034416,63.250065,-142.184570,172.995636,42.113388
691,0,51.669910,18.538277,24.726173,22.955284,56.993584,55.674709,-22.942144,86.067123,63.238724,-142.145142,173.002106,42.121029
692,0,51.709351,18.530384,24.744204,23.036274,57.032284,55.678452,-22.925863,86.103119,63.211887,-142.148026,173.036682,42.130398
693,0,51.712578,18.529358,24.745234,23.000614,57.025333,55.692554,-22.885708,86.077080,63.247181,-142.118729,173.036057,42.126514
694,0,51.654686,18.559563,24.733934,23.001051,57.027134,55.704250,-22.954187,86.098282,63.234760,-142.104416,173.061035,42.103752
695,0,51.655502,18.573141,24.739946,22.953234,57.003300,55.669205,-22.981571,86.119202,63.209759,-142.106277,173.054749,42.079590
696,0,51.650120,18.556971,24.727671,22.951374,57.002724,55.674305,-22.981497,86.101860,63.204750,-142.072998,173.060684,42.056206
697,0,51.668644,18.534943,24.735109,22.951178,57.001129,55.683285,-22.981302,86.102150,63.204796,-142.078003,173.054504,42.040524
698,0,51.639141,18.561743,24.745153,22.958279,57.005692,55.669098,-22.999273,86.085091,63.199497,-142.105759,173.071182,42.010021
699,0,51.652500,18.560791,24.750599,22.950951,57.022957,55.686970,-23.020132,86.087624,63.192799,-142.137054,173.063293,41.970375
700,0,51.574192,18.602356,24.745356,22.978148,57.080746,55.676903,-22.987743,86.119797,63.211643,-142.150894,173.053528,41.952503
701,0,51.635201,18.591702,24.760683,23.033445,57.101128,55.660221,-22.944050,86.184456,63.191578,-142.119812,173.050461,41.946796
702,0,51.669037,18.637583,24.754026,23.059299,57.177780,55.667202,-22.879519,86.259071,63.206970,-142.120972,173.027328,41.880478
703,0,51.714661,18.652357,24.752943,23.106770,57.245396,55.605732,-22.816336,86.325966,63.186676,-142.085602,173.035965,41.890816
704,0,51.721195,18.673462,24.747025,23.136448,57.253605,55.630856,-22.771826,86.347092,63.155197,-142.062531,173.029373,41.847427
705,0,51.725433,18.672739,24.746899,23.130100,57.243580,55.604618,-22.810837,86.359581,63.134270,-142.093506,173.033508,41.869183
706,0,51.722881,18.652836,24.759922,23.108089,57.265682,55.599068,-22.848291,86.332191,63.127762,-142.159210,173.023453,41.821125
707,0,51.709888,18.655704,24.751667,23.100695,57.258049,55.616795,-22.874910,86.344353,63.114910,-142.214035,172.987946,41.846096
708,0,51.734821,18.646311,24.754881,23.060617,57.208576,55.607994,-22.915976,86.244064,63.143856,-142.248688,172.954117,41.825680
709,0,51.674129,18.638227,24.759537,22.989111,57.151588,55.647533,-22.983675,86.177582,63.130356,-142.331573,172.910370,41.800545
710,0,51.695702,18.633533,24.761715,22.929867,57.114685,55.632675,-23.077410,86.122070,63.136497,-142.385437,172.847900,41.773838
711,0,51.572327,18.599953,24.745798,22.926207,57.083115,55.641331,-23.117964,86.078827,63.137821,-142.444077,172.787949,41.766235
712,0,51.628353,18.580784,24.764582,22.872980,57.081646,55.621479,-23.176834,86.056656,63.144333,-142.502899,172.750198,41.769840
713,0,51.600544,18.585236,24.760111,22.870632,57.074181,55.626324,-23.192829,86.051758,63.131161,-142.540085,172.771484,41.745678
714,0,51.625763,18.596905,24.733107,22.849522,57.095150,55.612305,-23.210600,86.060654,63.111759,-142.513580,172.734253,41.702976
715,0,51.532555,18.625410,24.725821,22.862816,57.095650,55.637020,-23.195217,86.054077,63.138939,-142.524216,172.753494,41.679981
716,0,51.605247,18.622551,24.753674,22.875378,57.103825,55.614491,-23.192476,86.085609,63.127571,-142.513840,172.726212,41.675610
717,0,51.604259,18.623211,24.753902,22.890032,57.111176,55.627167,-23.187162,86.116859,63.133968,-142.535782,172.730865,41.646626
718,0,51.629257,18.625443,24.726290,22.879438,57.115719,55.623783,-23.156118,86.141220,63.111790,-142.527405,172.765350,41.659813
719,0,51.480774,18.693703,24.742332,22.898682,57.125698,55.623333,-23.137545,86.113762,63.130020,-142.512344,172.746887,41.677521
720,0,51.652027,18.635963,24.753181,22.939079,57.130825,55.623730,-23.099049,86.114609,63.139484,-142.484573,172.786331,41.685188
721,0,51.689274,18.655895,24.747953,22.934280,57.134884,55.623196,-23.088432,86.126320,63.136906,-142.457336,172.760880,41.665997
722,0,51.605862,18.642275,24.724888,22.968273,57.123779,55.606262,-23.082359,86.163139,63.113213,-142.464798,172.795319,41.671406
723,0,51.685196,18.636482,24.727091,22.976759,57.149277,55.620033,-23.056610,86.188858,63.097210,-142.418854,172.794281,41.710289
724,0,51.658840,18.618965,24.731834,23.001875,57.141773,55.585850,-23.007566,86.168808,63.102848,-142.432343,172.784637,41.686573
725,0,51.635998,18.664238,24.748816,22.972954,57.139603,55.595734,-23.030912,86.187698,63.096069,-142.447479,172.821945,41.715424
726,0,51.643631,18.618286,24.756487,22.956196,57.157890,55.573681,-23.045712,86.192024,63.075996,-142.471100,172.818909,41.635468
727,0,51.635906,18.638258,24.725870,22.978504,57.166435,55.564289,-23.070402,86.206596,63.056103,-142.468307,172.834793,41.581722
728,0,51.641312,18.633110,24.726189,22.981070,57.138912,55.564159,-23.045864,86.172287,63.064835,-142.464645,172.803772,41.595131
729,0,51.663433,18.654467,24.755880,22.969025,57.182491,55.562370,-23.021748,86.177963,63.079380,-142.465485,172.831863,41.625381
730,0,51.639786,18.636234,24.753012,22.943909,57.175957,55.591614,-23.079159,86.195976,63.102909,-142.478760,172.853470,41.616127
731,0,51.640514,18.634073,24.753923,22.925358,57.169857,55.584484,-23.078310,86.194290,63.111877,-142.489090,172.822189,41.568016
732,0,51.617355,18.633465,24.753525,22.924408,57.169998,55.576015,-23.077829,86.193619,63.112118,-142.504288,172.813217,41.599709
733,0,51.656593,18.632616,24.754547,22.924807,57.169968,55.615967,-23.087164,86.174278,63.120701,-142.541946,172.826385,41.627911
734,0,51.655872,18.632046,24.755062,22.922346,57.161888,55.598724,-23.089725,86.199654,63.109726,-142.574432,172.869583,41.645855
735,0,51.656052,18.631804,24.771965,22.948933,57.165249,55.597847,-23.077858,86.187759,63.113384,-142.561798,172.845398,41.631546
736,0,51.645542,18.632839,24.755209,22.920721,57.171532,55.576706,-23.079954,86.187233,63.095421,-142.559250,172.860062,41.618927
737,0,51.608154,18.661385,24.748310,22.939594,57.179241,55.531799,-23.051394,86.179451,63.067913,-142.588165,172.844818,41.557709
738,0,51.648922,18.641386,24.743818,22.936001,57.187881,55.516415,-23.044401,86.223923,63.069195,-142.617279,172.856842,41.605042
739,0,51.672749,18.650196,24.757656,22.949783,57.162796,55.532150,-23.067038,86.180656,63.060455,-142.591492,172.863190,41.580280
740,0,51.646561,18.642002,24.733488,22.940813,57.162403,55.536530,-23.111824,86.184868,63.058117,-142.594528,172.831894,41.542057
741,0,51.669350,18.658195,24.737047,22.799662,57.136433,55.386772,-23.137716,86.183655,63.037247,-142.634338,172.805115,41.558353
742,0,51.670120,18.657597,24.737186,22.819437,57.156841,55.366158,-23.107496,86.181488,63.059456,-142.687866,172.785660,41.540703
743,0,51.638374,18.652670,24.722652,22.818096,57.151421,55.370148,-23.133499,86.210182,63.063068,-142.689331,172.805832,41.536377
744,0,51.663479,18.671265,24.724882,22.914127,57.185417,55.510765,-23.091631,86.208488,63.088207,-142.684326,172.838425,41.587112
745,0,51.685730,18.683262,24.724546,22.952456,57.219925,55.516777,-23.064844,86.192345,63.067348,-142.632599,172.837631,41.575691
746,0,51.673584,18.682440,24.724665,22.938354,57.225464,55.490139,-23.024624,86.206017,63.052788,-142.639160,172.834473,41.539997
747,0,51.704674,18.670704,24.761801,22.938641,57.226215,55.489281,-23.035822,86.257538,63.071533,-142.672546,172.872681,41.546146
748,0,51.621655,18.688627,24.732670,22.957949,57.237476,55.486969,-23.040258,86.275925,63.068501,-142.632751,172.877640,41.566444
749,0,51.684128,18.675089,24.743305,22.953564,57.234154,55.497280,-23.044056,86.281799,63.053875,-142.622421,172.837250,41.522720
750,0,51.675819,18.677837,24.779535,22.952183,57.231483,55.494061,-23.044546,86.273743,63.055435,-142.656860,172.859253,41.504421
751,0,51.666252,18.677465,24.771767,22.973831,57.247112,55.487900,-23.060019,86.291481,63.041576,-142.661057,172.858505,41.514759
752,0,51.667625,18.676277,24.773510,22.981888,57.247433,55.514370,-23.056477,86.241287,63.034809,-142.666977,172.870544,41.535988
753,0,51.697449,18.672907,24.763014,22.962334,57.252800,55.511734,-23.062656,86.229988,63.058361,-142.700958,172.908096,41.580265
754,0,51.694233,18.689222,24.731894,22.963165,57.261726,55.502220,-23.058407,86.258781,63.051910,-142.680801,172.891983,41.579472
755,0,51.694115,18.684824,24.746841,22.977001,57.272713,55.512165,-23.048218,86.264091,63.056252,-142.696213,172.894119,41.533520
756,0,51.697666,18.691105,24.785492,22.984463,57.284626,55.510563,-23.004400,86.273277,63.066341,-142.673096,172.923019,41.621181
757,0,51.696342,18.720778,24.729477,23.006262,57.290649,55.519417,-22.990915,86.270393,63.070446,-142.697769,172.905319,41.573627
758,0,51.709091,18.686632,24.750622,23.008709,57.257858,55.505730,-23.003824,86.263969,63.076099,-142.661865,172.888184,41.581104
759,0,51.719425,18.688700,24.750338,23.025198,57.240795,55.520351,-23.004784,86.237625,63.067047,-142.617142,172.878479,41.566109
760,0,51.649601,18.697792,24.731106,22.996130,57.262676,55.491802,-23.002153,86.257431,63.065342,-142.653442,172.904709,41.610191
761,0,51.696842,18.693653,24.740555,23.004744,57.268181,55.493149,-22.994045,86.267357,63.054016,-142.676300,172.886917,41.588772
762,0,51.720818,18.677876,24.771572,23.024891,57.238224,55.519360,-23.013025,86.228035,63.059517,-142.634445,172.891357,41.603718
763,0,51.712841,18.684380,24.741014,23.020218,57.254971,55.505096,-23.002855,86.228775,63.053787,-142.630630,172.901505,41.609142
764,0,51.732838,18.716970,24.720556,23.033131,57.246944,55.490665,-22.986900,86.243546,63.030823,-142.655624,172.941040,41.616791
765,0,51.720039,18.715658,24.721014,23.070848,57.305069,55.510273,-22.962955,86.305389,63.035229,-142.645905,172.944626,41.645756
766,0,51.731430,18.714281,24.756512,23.082281,57.297028,55.491226,-22.948128,86.304306,63.068195,-142.614197,172.931671,41.549465
767,0,51.759899,18.718914,24.751429,23.094263,57.314884,55.480083,-22.943880,86.312363,63.025406,-142.568710,172.970306,41.530823
768,0,51.787899,18.734003,24.754047,23.125584,57.321358,55.484280,-22.921652,86.339699,62.998451,-142.578964,172.988098,41.546890
769,0,51.774105,18.736820,24.742262,23.093637,57.354675,55.428505,-22.942163,86.350288,62.991447,-142.600494,172.944260,41.511223
770,0,51.770714,18.738546,24.725887,22.968155,57.332253,55.263142,-22.953382,86.378662,62.958397,-142.618622,172.907684,41.489010
771,0,51.754780,18.736202,24.743332,22.969513,57.341312,55.258343,-22.967207,86.336220,62.976189,-142.663025,172.923889,41.506378
772,0,51.735641,18.709557,24.759821,23.017038,57.371460,55.390022,-22.951057,86.352028,62.963158,-142.642868,172.951538,41.489807
773,0,51.766506,18.751320,24.747156,23.013248,57.390877,55.381859,-22.976597,86.378975,62.958614,-142.662704,172.949814,41.520496
774,0,51.742760,18.765295,24.745176,23.005316,57.390480,55.391823,-22.980576,86.352287,62.978855,-142.727371,172.992661,41.557404
775,0,51.727047,18.753269,24.730536,23.026901,57.373821,55.394650,-22.990561,86.378151,62.972851,-142.694946,172.985397,41.550762
776,0,51.755444,18.759672,24.747387,23.022694,57.376278,55.406731,-22.971699,86.366104,62.977806,-142.677185,172.984329,41.544559
777,0,51.728626,18.740448,24.761600,23.037476,57.373543,55.411049,-22.997061,86.392090,62.982552,-142.673126,172.994614,41.566071
778,0,51.728870,18.735973,24.763502,23.019075,57.358059,55.428226,-22.966780,86.373077,63.018791,-142.693756,173.023346,41.592361
779,0,51.732750,18.754557,24.758528,23.033541,57.366524,55.475052,-22.991310,86.416107,63.012218,-142.700745,173.047470,41.610268
780,0,51.707893,18.738779,24.754986,23.039690,57.353592,55.448872,-22.993690,86.371437,62.979244,-142.662399,173.049438,41.548138
781,0,51.714317,18.729902,24.774416,23.048838,57.356361,55.439548,-22.979002,86.358467,62.971497,-142.671494,173.022903,41.528492
782,0,51.723148,18.734983,24.756878,23.015877,57.364014,55.444798,-22.956890,86.354401,62.987431,-142.685303,172.974777,41.540070
783,0,51.722698,18.743498,24.732615,23.008745,57.352066,55.431828,-23.003475,86.368492,62.977142,-142.726349,172.967590,41.497814
784,0,51.721695,18.746948,24.742552,23.017159,57.369255,55.429546,-23.016563,86.364830,62.953316,-142.741226,172.965149,41.476624
785,0,51.733814,18.738998,24.760092,23.037815,57.377445,55.434280,-23.034618,86.361504,62.943169,-142.720108,172.956131,41.452896
786,0,51.727493,18.745932,24.751099,23.039051,57.383488,55.426788,-23.033247,86.390419,62.935539,-142.686966,172.953934,41.481499
787,0,51.740841,18.746990,24.749975,23.025049,57.379936,55.417286,-23.029715,86.423668,62.935875,-142.720795,172.968552,41.476498
788,0,51.720360,18.763645,24.747925,23.044792,57.395393,55.407383,-23.008688,86.443230,62.941448,-142.753983,172.942886,41.440262
789,0,51.745846,18.780117,24.750380,23.033632,57.415661,55.399284,-23.019258,86.443581,62.925777,-142.748627,172.940186,41.448982
790,0,51.753407,18.787083,24.761692,23.049627,57.432308,55.403053,-22.989368,86.431084,62.952908,-142.712128,172.941437,41.479633
791,0,51.766621,18.798662,24.758499,23.057673,57.427353,55.404552,-22.964861,86.446556,62.947086,-142.729004,172.934982,41.457092
792,0,51.782356,18.807753,24.729866,23.084139,57.414322,55.405354,-22.990387,86.444786,62.936073,-142.742386,172.928848,41.490246
793,0,51.796383,18.778622,24.766317,23.086792,57.414135,55.409290,-22.978720,86.427284,62.958858,-142.734436,172.924133,41.469280
794,0,51.793816,18.765703,24.765463,23.090267,57.432468,55.419804,-22.980883,86.433907,62.968380,-142.712936,172.915466,41.472546
795,0,51.802715,18.762018,24.769629,23.096203,57.428993,55.425495,-22.951084,86.424866,62.974564,-142.725098,172.904434,41.466614
796,0,51.791939,18.753109,24.783407,23.111736,57.409286,55.424839,-22.931028,86.385597,62.982693,-142.737259,172.913010,41.493591
797,0,51.802532,18.782337,24.742670,23.149641,57.402027,55.436554,-22.916502,86.398560,62.999905,-142.704971,172.914169,41.483524
798,0,51.789333,18.793797,24.729370,23.155188,57.412346,55.447598,-22.910650,86.438904,62.977276,-142.681183,172.912766,41.476585
799,0,51.825470,18.773760,24.752335,23.195688,57.415546,55.457455,-22.864204,86.445213,62.974766,-142.631042,172.918411,41.490322
800,0,51.836906,18.768908,24.759022,23.217157,57.423775,55.444649,-22.848207,86.501167,63.032707,-142.611145,172.924561,41.509747
801,0,51.847496,18.772129,24.772964,23.241402,57.444973,55.463764,-22.821310,86.481339,63.054344,-142.599762,172.982864,41.556416
802,0,51.830612,18.759546,24.789597,23.215117,57.416698,55.469460,-22.814455,86.509789,63.077003,-142.555756,172.992264,41.597893
803,0,51.799366,18.785048,24.755873,23.230017,57.448879,55.464352,-22.798904,86.497017,63.055092,-142.580231,173.023285,41.613739
804,0,51.787163,18.794098,24.718040,23.234236,57.450779,55.451328,-22.826258,86.535408,63.032425,-142.592331,173.050873,41.618614
805,0,51.791477,18.775265,24.725965,23.252785,57.435379,55.479954,-22.800226,86.486290,63.107952,-142.617722,173.066330,41.657349
806,0,51.805794,18.768589,24.735020,23.255632,57.429008,55.497181,-22.791210,86.502800,63.076481,-142.550308,173.060135,41.677570
807,0,51.828945,18.741549,24.732374,23.250286,57.445713,55.475632,-22.774265,86.502754,63.072430,-142.503220,173.066727,41.621433
808,0,51.840057,18.736231,24.721798,23.245182,57.391903,55.485443,-22.765293,86.486046,63.103935,-142.450226,173.045395,41.617832
809,0,51.844128,18.724897,24.711899,23.296326,57.369324,55.530636,-22.739504,86.471367,63.114471,-142.413239,173.087082,41.709915
810,0,51.896099,18.708929,24.741676,23.277880,57.338337,55.528893,-22.726728,86.482666,63.138626,-142.373657,173.115875,41.714958
811,0,51.842602,18.714453,24.737617,23.277958,57.338036,55.529198,-22.709160,86.463272,63.147350,-142.349777,173.110092,41.713467
812,0,51.860973,18.712645,24.736811,23.312582,57.371872,55.528881,-22.719288,86.468857,63.156815,-142.340897,173.139404,41.724606
813,0,51.846134,18.725731,24.715052,23.304821,57.385124,55.524010,-22.687286,86.482231,63.130333,-142.345306,173.184647,41.762222
814,0,51.843952,18.724939,24.715860,23.323446,57.363438,55.554562,-22.696709,86.512321,63.172550,-142.351883,173.188049,41.775459
815,0,51.872429,18.710922,24.740612,23.318768,57.363575,55.539188,-22.688335,86.505112,63.157192,-142.340424,173.199890,41.761776
816,0,51.851421,18.723469,24.718895,23.318655,57.363060,55.537884,-22.689564,86.521393,63.148140,-142.294556,173.249725,41.755684
817,0,51.858620,18.725939,24.707918,23.322556,57.365601,55.512630,-22.663069,86.492165,63.148125,-142.317230,173.220398,41.736382
818,0,51.837219,18.717655,24.710966,23.294916,57.367409,55.513580,-22.671021,86.508568,63.117302,-142.272629,173.265244,41.768803
819,0,51.844410,18.719917,24.726454,23.296555,57.376625,55.517830,-22.685398,86.509598,63.109131,-142.279037,173.232315,41.712982
820,0,51.846626,18.723291,24.715807,23.267099,57.364082,55.492115,-22.731174,86.505882,63.092567,-142.287872,173.246292,41.709415
821,0,51.838879,18.715467,24.729895,23.257246,57.336887,55.490696,-22.756556,86.488640,63.071487,-142.335449,173.210953,41.697243
822,0,51.844742,18.711258,24.739744,23.105738,57.370590,55.338272,-22.781384,86.463348,63.042038,-142.341278,173.217545,41.712467
823,0,51.831928,18.719147,24.712444,23.073362,57.376343,55.336212,-22.819042,86.486076,63.038319,-142.363937,173.198761,41.645805
824,0,51.759430,18.759365,24.722134,23.076435,57.373745,55.336674,-22.795776,86.496971,63.005344,-142.331528,173.213287,41.649197
825,0,51.778206,18.746677,24.726099,23.068003,57.401558,55.297890,-22.805944,86.511032,63.004658,-142.398712,173.242935,41.655056
826,0,51.788139,18.771963,24.695862,23.095774,57.408237,55.282154,-22.812881,86.531601,62.975861,-142.356262,173.242279,41.604713
827,0,51.809620,18.752525,24.718929,23.189651,57.406433,55.386211,-22.795336,86.553787,62.948204,-142.354614,173.215790,41.550873
828,0,51.806080,18.755424,24.716787,23.177599,57.416866,55.370033,-22.769976,86.553070,62.971264,-142.354645,173.213882,41.549625
829,0,51.807365,18.747894,24.726824,23.057653,57.390259,55.271698,-22.806654,86.576530,62.964573,-142.396347,173.223419,41.592918
830,0,51.812038,18.753094,24.705040,23.161577,57.377514,55.406631,-22.848700,86.521400,62.946499,-142.427383,173.204102,41.614071
831,0,51.806973,18.737595,24.726629,23.135006,57.352783,55.403191,-22.857798,86.497383,62.966080,-142.468658,173.175079,41.654121
832,0,51.800430,18.734333,24.700022,23.141783,57.327328,55.431126,-22.856024,86.454460,63.000015,-142.478012,173.178802,41.648037
833,0,51.799309,18.732483,24.700642,23.128279,57.311417,55.421803,-22.855640,86.426323,63.024506,-142.461090,173.214859,41.709095
834,0,51.776894,18.715590,24.706121,23.128691,57.331146,55.437359,-22.862465,86.421547,63.037895,-142.470123,173.223740,41.769096
835,0,51.778137,18.729601,24.701601,23.146900,57.303509,55.458321,-22.861158,86.400726,63.083939,-142.467636,173.228928,41.774002
836,0,51.779144,18.725594,24.715553,23.159243,57.336624,55.447937,-22.828836,86.447174,63.076668,-142.471725,173.230316,41.774948
837,0,51.773445,18.738932,24.725861,23.179998,57.333366,55.451138,-22.801058,86.465233,63.085945,-142.469955,173.230377,41.775249
838,0,51.820442,18.749060,24.706493,23.203316,57.338051,55.470661,-22.779465,86.471474,63.102879,-142.443222,173.282227,41.787407
839,0,51.841423,18.736469,24.706356,23.209877,57.334877,55.479702,-22.774273,86.455429,63.107403,-142.351700,173.278625,41.785797
840,0,51.818947,18.749437,24.706722,23.211935,57.334824,55.482059,-22.749916,86.463196,63.132687,-142.356934,173.279648,41.798710
841,0,51.820248,18.752190,24.726006,23.204659,57.355392,55.492050,-22.749210,86.504807,63.115768,-142.372559,173.336868,41.831882
842,0,51.823559,18.746788,24.708029,23.208370,57.360565,55.477768,-22.750099,86.502655,63.110462,-142.370956,173.367645,41.839550
843,0,51.819317,18.746901,24.708523,23.228239,57.353947,55.488110,-22.734024,86.505852,63.111538,-142.337418,173.353226,41.860447
844,0,51.825195,18.717863,24.688284,23.226402,57.291904,55.506565,-22.735575,86.468750,63.128143,-142.349640,173.375443,41.893517
845,0,51.811768,18.691984,24.720022,23.231575,57.301056,55.525082,-22.767187,86.472069,63.126595,-142.362778,173.396591,41.933346
846,0,51.810520,18.703617,24.706625,23.247112,57.290623,55.526604,-22.744200,86.470161,63.140579,-142.320648,173.347733,41.898453
847,0,51.839836,18.699291,24.708904,23.264774,57.274574,55.537445,-22.731256,86.465103,63.141361,-142.318100,173.394379,41.930748
848,0,51.841900,18.679285,24.714342,23.259224,57.292702,55.522160,-22.712650,86.465797,63.142582,-142.299789,173.346634,41.893543
849,0,51.828175,18.689854,24.685589,23.301571,57.292599,55.538868,-22.738190,86.466278,63.144917,-142.344986,173.383484,41.926353
850,0,51.834919,18.686314,24.695417,23.326160,57.288609,55.549072,-22.715586,86.471428,63.152260,-142.324585,173.370926,41.950214
851,0,51.842232,18.688938,24.696604,23.310390,57.284527,55.527069,-22.720545,86.494797,63.121216,-142.328705,173.356339,41.901993
852,0,51.840229,18.687313,24.702349,23.284397,57.303501,55.502792,-22.737131,86.502350,63.120411,-142.286407,173.385849,41.897774
853,0,51.844009,18.690205,24.696384,23.269665,57.322491,55.485149,-22.711830,86.496376,63.098885,-142.257187,173.392319,41.861336
854,0,51.841877,18.682104,24.700407,23.286306,57.310928,55.487682,-22.716988,86.477676,63.126781,-142.276474,173.372437,41.878597
855,0,51.774712,18.695267,24.690609,23.224640,57.306812,55.483498,-22.729336,86.486137,63.101627,-142.318985,173.375763,41.886353
856,0,51.786827,18.703400,24.684607,23.226803,57.315857,55.472893,-22.736469,86.465256,63.044331,-142.345886,173.373077,41.857662
857,0,51.810402,18.720417,24.694794,23.202242,57.323017,55.465073,-22.783636,86.455704,63.056252,-142.343704,173.370956,41.856346
858,0,51.772289,18.734735,24.701372,23.190029,57.330784,55.459095,-22.795744,86.462364,63.053848,-142.386017,173.396179,41.866653
859,0,51.775948,18.735779,24.725851,23.201321,57.321457,55.463009,-22.802822,86.452072,63.056648,-142.412628,173.365433,41.895481
860,0,51.777645,18.736980,24.699026,23.197134,57.321838,55.459038,-22.807779,86.448051,63.067390,-142.435654,173.370529,41.925800
861,0,51.749153,18.737619,24.682337,23.186802,57.327030,55.460384,-22.812094,86.476997,63.041531,-142.391479,173.367691,41.859013
862,0,51.786469,18.731548,24.702095,23.196039,57.344154,55.448837,-22.806890,86.470947,63.044437,-142.391159,173.372528,41.882710
863,0,51.829811,18.734665,24.715027,23.216597,57.333706,55.462734,-22.804144,86.513107,63.026070,-142.354141,173.379120,41.878906
864,0,51.826511,18.740942,24.756182,23.220583,57.341228,55.472206,-22.754011,86.497467,63.028091,-142.358871,173.399307,41.895222
865,0,51.854782,18.717758,24.718870,23.248846,57.360817,55.453537,-22.741039,86.502434,63.009941,-142.318176,173.375092,41.886597
866,0,51.828110,18.721304,24.697773,23.255011,57.364738,55.409744,-22.735544,86.561028,62.999622,-142.291061,173.368515,41.872807
867,0,51.847893,18.712763,24.689219,23.292650,57.374222,55.406685,-22.701946,86.533638,62.979603,-142.357147,173.367905,41.828770
868,0,51.857769,18.743626,24.691036,23.301935,57.380753,55.389484,-22.715336,86.561119,62.956863,-142.343842,173.366898,41.827843
869,0,51.846172,18.717314,24.715479,23.280134,57.371189,55.433002,-22.709465,86.530525,63.012695,-142.358429,173.377274,41.866501
870,0,51.848061,18.706932,24.728079,23.290850,57.382721,55.422028,-22.712772,86.540062,63.004463,-142.356033,173.386856,41.899048
871,0,51.865955,18.718487,24.706102,23.315933,57.391788,55.410313,-22.713921,86.560303,62.988064,-142.366333,173.373734,41.888336
872,0,51.862282,18.717972,24.705023,23.323057,57.410950,55.386230,-22.665602,86.542061,63.025974,-142.353256,173.414581,41.955692
873,0,51.893909,18.752821,24.701677,23.325226,57.432312,55.409840,-22.654932,86.564545,63.001461,-142.346436,173.390472,41.953468
874,0,51.922050,18.732056,24.699261,23.334236,57.428349,55.413864,-22.617046,86.618698,63.006809,-142.366928,173.396225,42.024281
875,0,51.942127,18.759125,24.688429,23.364126,57.467415,55.377739,-22.580864,86.616516,63.002773,-142.338226,173.411865,42.020451
876,0,51.950245,18.751745,24.688505,23.417561,57.515579,55.380535,-22.543076,86.648796,62.959618,-142.329117,173.411438,42.035839
877,0,52.002880,18.736858,24.711708,23.423206,57.524307,55.379982,-22.526932,86.662361,62.976532,-142.324463,173.408203,42.029099
878,0,51.981380,18.717735,24.703148,23.478638,57.512375,55.392597,-22.489305,86.679451,62.993793,-142.302887,173.398209,42.007744
879,0,52.027725,18.745789,24.678888,23.485403,57.525921,55.384365,-22.474577,86.686974,62.982151,-142.239914,173.387146,42.045383
880,0,52.027977,18.734737,24.694063,23.507778,57.507214,55.402596,-22.458427,86.673340,63.002197,-142.267578,173.382446,42.068260
881,0,52.031654,18.740082,24.712257,23.527948,57.544891,55.400097,-22.424765,86.698227,63.058456,-142.244568,173.383514,42.079468
882,0,52.061047,18.742020,24.723173,23.531376,57.542843,55.403561,-22.418951,86.700943,63.048706,-142.225891,173.373535,42.092968
883,0,52.055855,18.757044,24.697895,23.590740,57.535408,55.425537,-22.406736,86.708496,63.060493,-142.255371,173.352341,42.095722
884,0,52.060551,18.764585,24.679316,23.577400,57.540855,55.425858,-22.384665,86.689957,63.052723,-142.227493,173.389206,42.143414
885,0,52.064686,18.745193,24.682531,23.606762,57.517586,55.400036,-22.361328,86.714905,63.060715,-142.153381,173.373718,42.167934
886,0,52.071671,18.748400,24.671856,23.622316,57.510979,55.435669,-22.309532,86.712730,63.060493,-142.141113,173.380295,42.202644
887,0,52.112808,18.747511,24.673311,23.648302,57.540264,55.458076,-22.315624,86.733246,63.064465,-142.105316,173.369125,42.178379
888,0,52.114044,18.739048,24.682480,23.672459,57.531204,55.464539,-22.285158,86.716492,63.070797,-142.128403,173.351166,42.172653
889,0,52.115204,18.736996,24.683046,23.663242,57.521431,55.445370,-22.279078,86.725777,63.077309,-142.086441,173.360092,42.188370
890,0,52.072613,18.709534,24.674660,23.670616,57.502731,55.487087,-22.324694,86.719765,63.113586,-142.072556,173.361023,42.224384
891,0,52.073986,18.711533,24.674608,23.663061,57.486870,55.485039,-22.316439,86.676636,63.128361,-142.107574,173.345001,42.231205
892,0,52.068325,18.697577,24.675585,23.657681,57.486530,55.482510,-22.324276,86.643059,63.114292,-142.057220,173.322571,42.256760
893,0,52.072853,18.675060,24.673071,23.641735,57.470623,55.488842,-22.321976,86.634560,63.129833,-142.049881,173.309601,42.267216
894,0,52.073071,18.672201,24.673529,23.662949,57.459080,55.495861,-22.324959,86.645172,63.150928,-142.050262,173.310104,42.267921
895,0,52.082874,18.660555,24.677517,23.661335,57.451069,55.512428,-22.308910,86.649132,63.138069,-142.054459,173.309387,42.246841
896,0,52.082157,18.676090,24.673943,23.661026,57.450531,55.481632,-22.295694,86.625366,63.116261,-142.049164,173.311691,42.267700
897,0,52.080532,18.672085,24.656385,23.654663,57.474014,55.467716,-22.303715,86.646835,63.081055,-142.000839,173.339569,42.234398
898,0,52.071568,18.671391,24.673563,23.646132,57.480373,55.447853,-22.281105,86.660652,63.086956,-141.989441,173.361084,42.229870
899,0,52.085079,18.675695,24.674520,23.636576,57.512066,55.450890,-22.291990,86.681458,63.054302,-142.060425,173.370834,42.189705
900,0,52.047394,18.708023,24.674099,23.533171,57.563801,55.265751,-22.315464,86.777145,63.036388,-142.005768,173.346100,42.146111
901,0,52.077156,18.722538,24.660646,23.632839,57.539391,55.356926,-22.312853,86.751068,62.992805,-142.048981,173.376007,42.126850
902,0,52.085018,18.688265,24.647598,23.651615,57.539967,55.366142,-22.332710,86.745522,62.984058,-142.055832,173.348160,42.101223
903,0,52.050011,18.721554,24.646599,23.602438,57.565380,55.345474,-22.318230,86.749802,62.974178,-142.085800,173.307190,42.047955
904,0,52.047333,18.737295,24.643833,23.608326,57.576733,55.349258,-22.322268,86.747047,62.960827,-142.103043,173.296356,42.008961
905,0,52.070370,18.750158,24.657652,23.599098,57.580185,55.342083,-22.323135,86.789146,62.969193,-142.110336,173.335724,42.024704
906,0,52.068645,18.738939,24.673468,23.608389,57.585773,55.338787,-22.349237,86.761574,62.934486,-142.091309,173.234451,41.983021
907,0,52.058632,18.736826,24.637369,23.599669,57.579456,55.348293,-22.343199,86.733345,62.922859,-142.112396,173.252014,41.957153
908,0,52.056633,18.722206,24.653057,23.612720,57.585445,55.346317,-22.365355,86.773918,62.935055,-142.141113,173.244110,41.946095
