Trajectories
100
,,Y_Hara_Hand:forearm,,,Y_Hara_Hand:mp,,,Y_Hara_Hand:PIP,,,Y_Hara_Hand:DIP,,,
Frame,Sub Frame,X,Y,Z,X,Y,Z,X,Y,Z,X,Y,Z
,,mm,mm,mm,mm,mm,mm,mm,mm,mm,mm,mm,mm
1,0,68.760597,41.448757,25.466139,32.207031,75.840691,52.739021,-15.055157,98.875435,59.343182,-149.558075,177.592285,45.671791
2,0,68.732033,41.495193,25.484856,32.199326,75.849144,52.725491,-15.059443,98.864662,59.344921,-149.583786,177.555038,45.697758
3,0,68.723633,41.500362,25.489859,32.165348,75.797256,52.715908,-15.118758,98.851257,59.353111,-149.672318,177.477676,45.698803
4,0,68.710297,41.496723,25.479818,32.138607,75.800720,52.709747,-15.145415,98.830811,59.340080,-149.720749,177.448486,45.675892
5,0,68.702019,41.492714,25.456238,32.134396,75.801033,52.721668,-15.183169,98.831223,59.336670,-149.552780,175.825928,44.862267
6,0,68.705849,41.489857,25.481813,32.096260,75.794067,52.729198,-15.184513,98.808243,59.324379,-149.822189,177.248260,45.626232
7,0,68.698982,41.489025,25.470278,32.082954,75.771057,52.719234,-15.203655,98.770790,59.341217,-149.880157,177.165451,45.663746
8,0,68.700821,41.485470,25.485096,32.042583,75.787636,52.714218,-15.193083,98.754707,59.350754,-149.936783,177.044052,45.652122
9,0,68.700760,41.483070,25.477730,32.021793,75.785194,52.714413,-15.195936,98.721115,59.374405,-149.962082,176.971786,45.644936
10,0,68.691032,41.486065,25.481503,31.990242,75.762619,52.724308,-15.198542,98.699989,59.384407,-149.967377,176.914749,45.704029
11,0,68.700119,41.464832,25.480675,31.993502,75.741386,52.762722,-15.240944,98.678383,59.436535,-150.053192,176.840469,45.683460
12,0,68.688690,41.451443,25.507793,32.174026,75.637459,52.761600,-15.244138,98.665176,59.437962,-150.051117,176.823563,45.705086
13,0,68.628944,41.455799,25.490007,32.015438,75.669083,52.778328,-15.208216,98.624573,59.475182,-150.059860,176.771851,45.744484
14,0,68.678665,41.450848,25.497959,32.031731,75.666473,52.790211,-15.213734,98.635384,59.472370,-149.565613,174.771210,44.855785
15,0,68.701584,41.444233,25.481504,32.205936,75.635071,52.776218,-15.208653,98.624542,59.483242,-149.785858,175.166138,44.999645
16,0,68.676788,41.449036,25.511702,32.198059,75.622879,52.784744,-15.191176,98.634186,59.506653,-150.129990,176.619492,45.732300
17,0,68.699326,41.448170,25.512274,32.208763,75.623901,52.799107,-15.176291,98.623917,59.522785,-149.749222,175.156128,45.106133
18,0,68.701111,41.443790,25.494736,32.204510,75.619217,52.808331,-15.177969,98.603889,59.552227,-149.774994,175.215439,45.145103
19,0,68.632027,41.432209,25.506670,32.198917,75.582359,52.825691,-15.204224,98.589249,59.554890,-150.085037,176.597977,45.853806
20,0,68.699791,41.444920,25.500877,32.193214,75.544632,52.841976,-15.193085,98.543755,59.597847,-149.792984,175.208420,45.219460
21,0,68.730133,41.401482,25.500263,32.202255,75.540642,52.862579,-15.195538,98.547997,59.631844,-149.772964,175.227753,45.275608
22,0,68.729141,41.395885,25.482447,32.215351,75.517159,52.857731,-15.120593,98.486107,59.645470,-149.508453,174.627472,45.125580
23,0,68.734741,41.385914,25.478403,32.246502,75.487839,52.875984,-15.093622,98.467934,59.652016,-149.315277,174.378113,44.982983
24,0,68.740936,41.370266,25.481127,32.269135,75.492645,52.830421,-15.123109,98.504776,59.652245,-149.676971,175.195374,45.343796
25,0,68.751183,41.374989,25.477053,32.284855,75.519646,52.890015,-15.085359,98.491379,59.664608,-149.666779,175.207474,45.366810
26,0,68.741234,41.368149,25.483019,32.303654,75.522736,52.905121,-15.000790,98.477051,59.679428,-149.694641,175.239990,45.372097
27,0,68.746849,41.369614,25.472704,32.310768,75.530106,52.914711,-15.064283,98.513672,59.684608,-149.683136,175.243317,45.397583
28,0,68.773590,41.363052,25.480164,32.289055,75.519264,52.903805,-15.013405,98.455704,59.676098,-149.686096,175.327667,45.415928
29,0,68.756912,41.375427,25.478519,32.292549,75.519173,52.895763,-15.055882,98.498825,59.705677,-149.664459,175.331741,45.459850
30,0,68.744507,41.367191,25.484182,32.285511,75.487862,52.934223,-15.081635,98.473618,59.701771,-149.686691,175.340210,45.419090
31,0,68.744812,41.374096,25.478006,32.229469,75.480637,52.907814,-15.094349,98.423256,59.704803,-149.659653,175.305145,45.416233
32,0,68.729172,41.353943,25.470161,32.223938,75.461060,52.896572,-15.098883,98.410873,59.707233,-149.671097,175.248383,45.407162
33,0,68.693573,41.353985,25.476233,32.200417,75.449036,52.881893,-15.160469,98.419640,59.666355,-149.707794,175.298798,45.412575
34,0,68.686821,41.369072,25.479065,32.187584,75.434845,52.875370,-15.131887,98.388336,59.636356,-149.685593,175.253036,45.379116
35,0,68.609108,41.363049,25.451363,32.150475,75.474480,52.845840,-15.213424,98.426636,59.602207,-149.452316,174.659897,45.175194
36,0,68.637909,41.355930,25.473284,32.136330,75.499458,52.830246,-15.234711,98.429886,59.574207,-149.327896,174.374741,44.952515
37,0,68.642792,41.355576,25.475580,32.110260,75.489479,52.813438,-15.258183,98.464088,59.533272,-149.781418,175.320526,45.297012
38,0,68.586815,41.396023,25.451366,32.092716,75.476700,52.801613,-15.291306,98.487160,59.511913,-150.078491,176.723618,45.974438
39,0,68.629593,41.415543,25.480337,32.085922,75.519943,52.769684,-15.286551,98.471802,59.484272,-150.081284,176.710587,45.898319
40,0,68.607956,41.407928,25.472834,32.042889,75.509361,52.776978,-15.327240,98.492828,59.451160,-150.138947,176.764282,45.891403
41,0,68.535614,41.411259,25.483742,32.037296,75.510017,52.742123,-15.338546,98.503906,59.419243,-150.180771,176.725677,45.805035
42,0,68.581032,41.413139,25.493179,32.040058,75.532211,52.729721,-15.351432,98.501556,59.411015,-150.153809,176.735962,45.835110
43,0,68.547394,41.409622,25.477062,31.999338,75.513359,52.749172,-15.356898,98.489349,59.434017,-149.866714,175.237137,45.078663
44,0,68.536423,41.399750,25.497623,31.988733,75.500168,52.775375,-15.383005,98.464310,59.463799,-149.880402,175.245972,45.082047
45,0,68.567719,41.395447,25.490044,32.013954,75.469276,52.784294,-15.387878,98.449089,59.450848,-150.212036,176.564621,45.742123
46,0,68.577736,41.417793,25.505743,32.003666,75.486572,52.779369,-15.393184,98.446434,59.475361,-149.964935,175.239059,45.106033
47,0,68.541740,41.408802,25.492853,32.005898,75.509041,52.797432,-15.391094,98.457237,59.494133,-149.982407,175.168915,45.073143
48,0,68.577431,41.417351,25.505852,31.996716,75.480255,52.803360,-15.385233,98.401733,59.514202,-149.986008,175.114517,45.080582
49,0,68.580421,41.406254,25.476326,32.022820,75.437256,52.810276,-15.383857,98.398659,59.549526,-150.038345,175.040421,45.080750
50,0,68.575188,41.421486,25.475632,32.005936,75.441299,52.827824,-15.428957,98.356743,59.564274,-150.053177,175.038788,45.061790
51,0,68.536430,41.400681,25.497747,31.985510,75.428596,52.846066,-15.396817,98.343048,59.564854,-150.067474,174.953964,45.060360
52,0,68.527000,41.384285,25.498461,31.974342,75.438469,52.843006,-15.402639,98.254318,59.565666,-150.099182,174.882507,45.102837
53,0,68.566223,41.420219,25.509106,31.965849,75.433121,52.847843,-15.425481,98.284821,59.590832,-150.126282,174.915115,45.084721
54,0,68.532433,41.417454,25.494070,31.985712,75.400368,52.828094,-15.402521,98.254234,59.565472,-150.138000,174.851410,45.053108
55,0,68.602577,41.419697,25.505697,31.954906,75.423134,52.848091,-15.431344,98.289124,59.583267,-150.126511,174.821304,45.051388
56,0,68.571541,41.419422,25.509809,31.977375,75.428764,52.846970,-15.428916,98.276199,59.616470,-150.145844,174.785431,45.089405
57,0,68.543983,41.431698,25.505936,32.012470,75.407471,52.837605,-15.467145,98.306114,59.622066,-150.146164,174.782516,45.088024
58,0,68.596207,41.427586,25.491678,31.998728,75.422676,52.849705,-15.442401,98.311127,59.638935,-149.969833,174.252655,44.943779
59,0,68.605057,41.430576,25.524548,32.019817,75.405800,52.846970,-15.396789,98.281853,59.665318,-149.999710,174.259033,45.015507
60,0,68.598389,41.412811,25.502209,32.007542,75.422188,52.877899,-15.425865,98.327858,59.700970,-150.131592,174.660599,45.188690
61,0,68.615555,41.400631,25.523876,32.037884,75.364983,52.899601,-15.418252,98.271309,59.758038,-150.439957,176.035660,45.917953
62,0,68.646553,41.424980,25.474926,32.054096,75.360374,52.914719,-15.360466,98.234482,59.778297,-150.425629,176.050217,45.956055
63,0,68.640739,41.391975,25.513454,32.102722,75.350883,52.939716,-15.375527,98.250237,59.789280,-150.426483,176.003586,45.999157
64,0,68.698471,41.392998,25.518223,32.104820,75.329132,52.983410,-15.355942,98.225998,59.872280,-150.402527,175.988052,46.053318
65,0,68.714691,41.381363,25.484825,32.153046,75.281578,53.014137,-15.380482,98.213219,59.909218,-150.370407,175.949783,46.074440
66,0,68.733849,41.357525,25.499086,32.191593,75.259834,53.038177,-15.355891,98.228889,59.952698,-150.380707,175.899826,46.136639
67,0,68.760208,41.343880,25.468330,32.200581,75.248634,53.058365,-15.346170,98.180283,59.971252,-150.310333,175.864822,46.203751
68,0,68.798897,41.319260,25.451969,32.252262,75.210182,53.065048,-15.342253,98.214127,59.977585,-150.291290,175.860748,46.258644
69,0,68.829674,41.331955,25.450600,32.282108,75.194656,53.081505,-15.168896,98.037560,60.035786,-150.285812,175.826889,46.296459
70,0,68.858688,41.341423,25.456850,32.301823,75.194611,53.087803,-15.259233,98.200768,60.050087,-149.929001,174.376495,45.629189
71,0,68.869484,41.328655,25.463274,32.311111,75.182907,53.108994,-15.247585,98.206711,60.055988,-149.921463,174.326859,45.690449
72,0,68.875282,41.317078,25.478554,32.331272,75.197525,53.132809,-15.056700,98.075867,60.148766,-149.928421,174.419815,45.815144
73,0,68.869591,41.323208,25.468943,32.347389,75.227249,53.127243,-15.032001,98.065514,60.147144,-149.935715,174.505417,45.900036
74,0,68.871147,41.324905,25.466763,32.353222,75.229767,53.131397,-15.025033,98.095512,60.168304,-149.932556,174.440277,45.945873
75,0,68.873199,41.337910,25.472324,32.365772,75.219284,53.144203,-14.965472,98.085655,60.213379,-150.143433,176.733856,46.841434
76,0,68.877121,41.358326,25.463787,32.366112,75.217545,53.148037,-14.972507,98.110886,60.245029,-150.170883,175.690170,46.728558
77,0,68.877495,41.358055,25.462770,32.360004,75.210533,53.141247,-14.981984,98.103577,60.257183,-149.932053,174.375778,46.109737
78,0,68.862640,41.360077,25.462543,32.356750,75.223373,53.144585,-14.996264,98.117355,60.253872,-150.151947,176.752899,46.974419
79,0,68.858002,41.370251,25.462637,32.331387,75.217560,53.135746,-14.973959,98.071274,60.265003,-150.207397,176.780197,47.052326
80,0,68.875229,41.370228,25.461792,32.361412,75.229874,53.125111,-14.977367,98.094246,60.245274,-150.223618,176.784653,47.041676
81,0,68.882637,41.364967,25.471010,32.341400,75.242615,53.120159,-14.975980,98.098602,60.239323,-150.185074,176.737305,47.075306
82,0,68.877342,41.381390,25.468250,32.352966,75.243263,53.090549,-14.965204,98.108940,60.181316,-150.237823,175.566467,46.856148
83,0,68.857407,41.391041,25.456787,32.323475,75.268982,53.076084,-14.999293,98.137619,60.165306,-150.305405,175.585175,46.851841
84,0,68.871719,41.400604,25.456554,32.285603,75.252686,53.035126,-15.019420,98.162216,60.130676,-150.092026,174.156464,46.161232
85,0,68.847511,41.423786,25.478422,32.297272,75.249374,53.030247,-15.042187,98.151955,60.117966,-150.378296,175.439850,46.832787
86,0,68.819710,41.419453,25.485344,32.222622,75.267677,53.035645,-15.077308,98.138657,60.130058,-150.424759,175.417664,46.835461
87,0,68.773575,41.415062,25.477751,32.203041,75.262856,53.031570,-15.114497,98.127579,60.115448,-150.491531,175.456116,46.845325
88,0,68.766930,41.455631,25.459284,32.199940,75.264702,53.016949,-15.127075,98.106224,60.128220,-150.479080,176.634995,47.097820
89,0,68.740067,41.443192,25.474989,32.183971,75.248680,53.031128,-15.167908,98.075684,60.124012,-150.499130,176.559341,47.135029
90,0,68.752457,41.398457,25.493626,32.155926,75.218498,53.045574,-15.177174,98.034576,60.154648,-150.538666,176.460770,47.181213
91,0,68.759125,41.393147,25.469669,32.140945,75.157829,53.063625,-15.205236,97.961151,60.172035,-150.564789,176.397049,47.174969
92,0,68.750710,41.391922,25.484467,32.139275,75.116089,53.065933,-15.271874,97.902565,60.175602,-150.518784,176.337402,46.977837
93,0,68.756699,41.364311,25.488382,32.110352,75.091064,53.082775,-15.293420,97.875412,60.171192,-150.638168,176.272873,47.201847
94,0,68.750542,41.339287,25.500988,32.067013,75.019142,53.119125,-15.310592,97.799278,60.199734,-150.569229,176.148102,46.964924
95,0,68.750816,41.328815,25.515633,32.071484,74.970329,53.148300,-15.326082,97.730057,60.211281,-150.506058,173.683075,46.368443
96,0,68.756470,41.312443,25.505167,32.071590,74.969902,53.147232,-15.358925,97.707672,60.211853,-150.517258,173.602036,46.319725
97,0,68.757301,41.313206,25.504103,32.081352,74.986862,53.127506,-15.328030,97.740067,60.199230,-150.536041,173.645355,46.290890
98,0,68.785271,41.302227,25.497276,32.132687,74.999542,53.110184,-15.297949,97.738205,60.209064,-150.490692,173.616028,46.307117
99,0,68.825401,41.321232,25.481615,32.156281,74.992332,53.130157,-15.303445,97.743477,60.202305,-150.457672,173.550644,46.261047
100,0,68.848442,41.333416,25.470324,32.163094,75.012016,53.118759,-15.296092,97.781990,60.188213,-150.479202,173.539612,46.211941
101,0,68.849129,41.333607,25.470350,32.170258,75.022011,53.105877,-15.265857,97.769455,60.196838,-150.505432,173.599472,46.257900
102,0,68.851440,41.336208,25.469637,32.158157,75.043495,53.111385,-15.279062,97.796150,60.187557,-150.499222,173.606522,46.277248
103,0,68.824966,41.331310,25.472076,32.181919,75.028671,53.100636,-15.267133,97.764748,60.186977,-150.507889,173.581665,46.244034
104,0,68.813614,41.325489,25.476154,32.126869,74.985573,53.119614,-15.277748,97.736900,60.189140,-150.472580,173.539368,46.229603
105,0,68.820084,41.332176,25.485104,32.118595,74.997421,53.122829,-15.293158,97.726234,60.199825,-150.574997,173.570374,46.320129
106,0,68.780884,41.297779,25.505842,32.085758,74.969894,53.131317,-15.343864,97.683014,60.190083,-150.561310,173.575607,46.349499
107,0,68.781120,41.308121,25.492779,32.083168,74.921280,53.101505,-15.372356,97.678932,60.204063,-150.558578,173.494125,46.222126
108,0,68.763329,41.292057,25.474400,32.060875,74.902611,53.111889,-15.364282,97.650452,60.183964,-150.543396,173.495102,46.250732
109,0,68.782959,41.266472,25.491823,32.073082,74.894562,53.096684,-15.367664,97.645416,60.187660,-150.579254,173.548874,46.266232
110,0,68.754654,41.299320,25.462280,32.062466,74.906509,53.111874,-15.373650,97.637215,60.157719,-150.581238,173.551880,46.267048
111,0,68.750031,41.299942,25.494743,32.061634,74.906776,53.081501,-15.388500,97.661530,60.122200,-150.779831,174.737503,46.798790
112,0,68.747360,41.310764,25.476057,32.042400,74.951416,53.070572,-15.397052,97.681572,60.114803,-150.556076,173.489716,46.221363
113,0,68.774315,41.324314,25.471149,32.049335,74.960899,53.096825,-15.366801,97.680496,60.105228,-150.575592,173.488037,46.193298
114,0,68.774963,41.325558,25.509428,32.048550,74.954491,53.083126,-15.368739,97.680763,60.110558,-150.593521,173.544052,46.247334
115,0,68.744926,41.313202,25.483957,32.018196,74.941933,53.076981,-15.385331,97.688507,60.118542,-150.623398,173.623596,46.260895
116,0,68.739952,41.328972,25.481667,32.034241,74.951889,53.060543,-15.387192,97.689049,60.119083,-150.588593,173.560837,46.253014
117,0,68.756950,41.340225,25.486601,32.014450,74.945663,53.074192,-15.400581,97.683716,60.123947,-150.594437,173.483017,46.252125
118,0,68.711205,41.326691,25.486427,32.013805,74.943405,53.063259,-15.407819,97.672478,60.141468,-150.582672,173.557281,46.268589
119,0,68.718742,41.324326,25.502102,31.994390,74.947655,53.079857,-15.409349,97.679413,60.157146,-150.593643,173.550064,46.279533
120,0,68.704781,41.339428,25.499311,32.006775,74.959572,53.056755,-15.406231,97.663040,60.142876,-150.615509,173.637650,46.282104
121,0,68.680206,41.340755,25.482559,32.002838,74.967812,53.055740,-15.432239,97.734215,60.172989,-150.615860,173.639343,46.282459
122,0,68.690727,41.356426,25.482409,32.007973,74.980309,53.054733,-15.426052,97.751358,60.173096,-150.618332,173.646118,46.284519
123,0,68.689713,41.372410,25.484961,32.014839,75.007896,53.076897,-15.414712,97.760155,60.172043,-150.604599,173.717056,46.299942
124,0,68.694763,41.370342,25.502222,32.007736,75.035934,53.049099,-15.396661,97.822067,60.146755,-150.848969,175.032669,46.911785
125,0,68.698410,41.368526,25.494122,32.016201,75.050865,53.039631,-15.388022,97.829117,60.151520,-150.835251,175.123245,46.909252
126,0,68.691376,41.384731,25.501425,32.042587,75.088478,53.027081,-15.351358,97.880844,60.127510,-150.910049,175.233475,46.916496
127,0,68.701416,41.398880,25.492319,32.080425,75.121765,53.033733,-15.287498,97.872017,60.140350,-151.046219,175.395782,46.959770
128,0,68.703003,41.403286,25.498945,32.076488,75.110596,53.027111,-15.312516,97.890381,60.159470,-151.099960,175.500305,47.033073
129,0,68.742928,41.398643,25.493042,32.081722,75.111115,53.033264,-15.289800,97.873375,60.162491,-151.145340,175.557892,47.070587
130,0,68.732681,41.412735,25.481102,32.084042,75.116547,53.052040,-15.303305,97.868408,60.167763,-151.181274,175.602814,47.105492
131,0,68.748657,41.384598,25.489801,32.102505,75.082848,53.068745,-15.287247,97.875595,60.205803,-151.007370,174.904465,46.663845
132,0,68.755127,41.371727,25.499319,32.120083,75.075928,53.097862,-15.284874,97.827209,60.251095,-151.224167,175.549591,47.155422
133,0,68.754570,41.371304,25.499182,32.123985,75.060265,53.122025,-15.283250,97.825058,60.266472,-151.019760,174.818665,46.763580
134,0,68.778404,41.394535,25.491447,32.130783,75.057739,53.120346,-15.260427,97.818001,60.304543,-151.035263,174.869232,46.806236
135,0,68.787338,41.386940,25.485233,32.169033,75.052872,53.131073,-15.259846,97.828949,60.320770,-151.040390,174.735413,46.739239
136,0,68.809219,41.375736,25.498455,32.174026,75.042343,53.168636,-15.243875,97.823685,60.335705,-150.989685,174.611938,46.686260
137,0,68.786758,41.361340,25.479738,32.173279,75.032761,53.170937,-15.250733,97.822128,60.357883,-150.948380,174.551254,46.701370
138,0,68.814194,41.372875,25.497234,32.173264,75.027458,53.157291,-15.219518,97.775703,60.341595,-150.885559,174.435364,46.616642
139,0,68.822205,41.365108,25.501743,32.173428,75.026695,53.155731,-15.234096,97.797302,60.307255,-150.782501,174.160721,46.517094
140,0,68.824448,41.375126,25.476181,32.163746,75.062653,53.133060,-15.260835,97.823433,60.275467,-150.704407,173.894073,46.387154
141,0,68.811234,41.368408,25.496994,32.169670,75.057068,53.109631,-15.245409,97.809578,60.274281,-150.693176,173.832977,46.349388
142,0,68.796158,41.390427,25.499199,32.154781,75.093880,53.097897,-15.259892,97.847801,60.231968,-150.678467,173.754700,46.309235
143,0,68.777115,41.419674,25.483543,32.135654,75.107704,53.080154,-15.292781,97.853958,60.176224,-150.603607,173.627365,46.187984
144,0,68.770821,41.429638,25.474142,32.118809,75.142387,53.049282,-15.301066,97.879379,60.156410,-150.623047,173.615829,46.139874
145,0,68.757797,41.440742,25.481979,32.088749,75.151497,53.020527,-15.309208,97.895332,60.137451,-150.581741,173.653824,46.143570
146,0,68.755264,41.441635,25.476610,32.085079,75.156464,53.038147,-15.338864,97.937874,60.128418,-150.627960,173.668777,46.091526
147,0,68.749344,41.414402,25.478142,32.054909,75.159088,53.031841,-15.331942,97.929749,60.144108,-150.596405,173.606613,46.056133
148,0,68.747932,41.435886,25.490814,32.057217,75.154778,53.025078,-15.355773,97.937675,60.126858,-150.596664,173.604782,46.055744
149,0,68.728531,41.412212,25.472929,32.063049,75.155533,53.011333,-15.335269,97.939575,60.132271,-150.601715,173.567093,46.055893
150,0,68.727577,41.410664,25.472961,32.065666,75.167580,53.030567,-15.346389,97.935883,60.143124,-150.586838,173.625061,46.078133
151,0,68.748062,41.424305,25.484814,32.077389,75.143166,53.059624,-15.325943,97.906693,60.140667,-150.594604,173.622360,46.093376
152,0,68.732094,41.384140,25.489332,32.077065,75.135796,53.071316,-15.320476,97.879585,60.154842,-150.595734,173.615494,46.058517
153,0,68.736633,41.402565,25.498714,32.093708,75.143234,53.062294,-15.307579,97.885979,60.165981,-150.577957,173.646210,46.141609
154,0,68.774872,41.422073,25.494061,32.121223,75.145134,53.074284,-15.304716,97.919594,60.192200,-150.577072,173.642044,46.140545
155,0,68.761719,41.399445,25.496372,32.127762,75.144798,53.084293,-15.294987,97.940872,60.181648,-150.570679,173.721054,46.158115
156,0,68.756645,41.425232,25.480722,32.134960,75.153824,53.069366,-15.241557,97.917336,60.197430,-150.577713,173.703598,46.104698
157,0,68.758224,41.458961,25.486332,32.121929,75.177055,53.066170,-15.261841,97.934158,60.181866,-150.775375,174.958466,46.663239
158,0,68.774292,41.457150,25.486404,32.139557,75.183685,53.040783,-15.267564,97.966530,60.154926,-150.768692,174.954803,46.676102
159,0,68.772469,41.463615,25.466702,32.137711,75.206146,53.029171,-15.286381,97.990715,60.145195,-150.785812,174.973923,46.654934
160,0,68.757408,41.483963,25.467319,32.131115,75.204193,53.017395,-15.291194,98.004837,60.127350,-150.809357,174.964981,46.622013
161,0,68.751404,41.447681,25.470987,32.089706,75.201904,52.990669,-15.307380,97.986565,60.092316,-150.798691,174.974335,46.621632
162,0,68.730896,41.487419,25.486273,32.050049,75.232758,52.972557,-15.330986,97.992462,60.044937,-150.838287,175.059158,46.615330
163,0,68.678497,41.475399,25.498051,32.045872,75.241707,52.962681,-15.335993,97.985710,60.056808,-150.872711,175.061066,46.579792
164,0,68.665314,41.478584,25.494978,32.027649,75.240311,52.955368,-15.365349,98.000320,60.015488,-150.642960,173.728439,45.890503
165,0,68.662994,41.474617,25.497223,32.012344,75.244370,52.948040,-15.406754,98.005569,59.974274,-150.672653,173.771835,45.864140
166,0,68.647079,41.487324,25.484076,31.988022,75.261887,52.915989,-15.429510,98.045982,59.945591,-150.613892,173.717758,45.804165
167,0,68.643776,41.485462,25.489607,31.960913,75.271133,52.901096,-15.439947,98.057770,59.944901,-150.637024,173.730591,45.812321
168,0,68.645210,41.493507,25.494892,31.950708,75.266998,52.916409,-15.396528,98.010284,59.941479,-150.891327,175.103775,46.453846
169,0,68.660049,41.497295,25.517094,32.010788,75.266907,52.917164,-15.436478,98.061554,59.941921,-150.894562,175.102554,46.434887
170,0,68.644508,41.465874,25.536629,31.978334,75.276474,52.921192,-15.416961,98.067139,59.959419,-150.897903,175.082291,46.424454
171,0,68.644638,41.465622,25.536858,32.000278,75.266861,52.932961,-15.402849,98.060974,59.961349,-150.675705,173.741837,45.734280
172,0,68.610016,41.475418,25.506651,31.981983,75.274483,52.915928,-15.405174,98.071159,59.948048,-150.643387,173.684174,45.698833
173,0,68.612350,41.474697,25.503088,32.016792,75.294563,52.911472,-15.410033,98.076950,59.941635,-150.642227,173.677444,45.663723
174,0,68.662735,41.506458,25.512552,31.995691,75.295532,52.913074,-15.405254,98.093147,59.941422,-150.670837,173.798065,45.695847
175,0,68.682869,41.524918,25.512302,32.032154,75.288361,52.936340,-15.405283,98.092773,59.942326,-150.632523,173.753845,45.680496
176,0,68.686172,41.537941,25.492842,32.034092,75.293732,52.923599,-15.406000,98.092560,59.941586,-150.666153,173.743805,45.712170
177,0,68.685165,41.534660,25.495626,32.019421,75.298584,52.924683,-15.393005,98.078476,59.971432,-150.650406,173.809357,45.726994
178,0,68.618744,41.505863,25.502796,32.023705,75.284477,52.956902,-15.406316,98.091446,59.984596,-150.663147,173.743057,45.745392
179,0,68.666893,41.512554,25.527098,32.043995,75.287766,52.966858,-15.406008,98.080856,59.997135,-150.619629,173.701965,45.748287
180,0,68.667313,41.498741,25.530659,32.042980,75.287476,52.966938,-15.370955,98.071831,60.015648,-150.619797,173.702560,45.748291
181,0,68.700569,41.479488,25.519588,32.061932,75.292870,52.987274,-15.354672,98.077225,60.052952,-150.574722,173.718536,45.773136
182,0,68.658630,41.477566,25.510199,32.065914,75.285164,52.978386,-15.354158,98.089035,60.046459,-150.810287,175.070129,46.407047
183,0,68.718109,41.478931,25.518265,32.092655,75.280235,52.974510,-15.320287,98.065376,60.060875,-150.577408,173.702332,45.752098
184,0,68.707672,41.475746,25.526321,32.097424,75.306404,52.994984,-15.308912,98.052208,60.068993,-150.566666,173.711166,45.782070
185,0,68.718292,41.480007,25.517864,32.107426,75.324356,52.988617,-15.304919,98.090668,60.044029,-150.573532,173.692062,45.749424
186,0,68.695984,41.491474,25.513081,32.111622,75.332481,52.973286,-15.286800,98.133614,60.044640,-150.565460,173.764557,45.765015
187,0,68.735085,41.492085,25.521633,32.123878,75.345978,52.960316,-15.277098,98.124939,60.021221,-150.795914,175.132156,46.408455
188,0,68.742371,41.521828,25.518028,32.116413,75.361244,52.954494,-15.260107,98.140770,60.009880,-150.772156,175.165115,46.400265
189,0,68.742538,41.534187,25.502485,32.120422,75.379883,52.951607,-15.249995,98.168663,60.008606,-150.773132,175.162811,46.368855
190,0,68.706520,41.538662,25.513859,32.147228,75.387909,52.953140,-15.253369,98.165268,60.012112,-150.789780,175.244995,46.417931
191,0,68.745125,41.540123,25.523006,32.136921,75.393013,52.957882,-15.272491,98.197464,59.997604,-150.791382,175.260452,46.426937
192,0,68.739471,41.548279,25.502695,32.132156,75.409409,52.942482,-15.292549,98.225311,59.999859,-150.795364,175.251404,46.393658
193,0,68.722771,41.524364,25.512346,32.125328,75.401085,52.932991,-15.286568,98.220322,60.007912,-150.803467,175.279938,46.432098
194,0,68.740555,41.537796,25.516422,32.123127,75.391373,52.952118,-15.290363,98.216003,60.013176,-150.626343,173.909439,45.825089
195,0,68.723335,41.538387,25.516670,32.117153,75.382683,52.970898,-15.299007,98.215080,60.022537,-150.616409,174.026352,45.840885
196,0,68.710678,41.522079,25.509932,32.089394,75.366875,52.936733,-15.300531,98.215080,60.022503,-150.552887,173.917130,45.780270
197,0,68.717125,41.521847,25.519323,32.134644,75.359596,52.965630,-15.256102,98.188423,60.051201,-150.518829,173.851395,45.786427
198,0,68.744125,41.520161,25.494667,32.129787,75.371399,52.965321,-15.255711,98.188667,60.050762,-150.757477,175.203995,46.433704
199,0,68.754837,41.503017,25.491770,32.153187,75.385033,52.992252,-15.214165,98.206009,60.043903,-150.745712,175.209991,46.448196
200,0,68.773880,41.501125,25.506983,32.223957,75.368958,52.996162,-15.179056,98.200958,60.041794,-150.714554,175.247055,46.482025
201,0,68.794044,41.498226,25.486553,32.210606,75.373489,52.985172,-15.183543,98.190163,60.047443,-150.637085,175.244766,46.483379
202,0,68.798393,41.509029,25.480478,32.204826,75.397537,52.980381,-15.157149,98.217957,60.065495,-150.442368,173.918243,45.860390
203,0,68.771202,41.506897,25.503176,32.234348,75.388336,52.994331,-15.161004,98.262169,60.088581,-150.443710,173.918076,45.860268
204,0,68.832550,41.464973,25.531548,32.206005,75.413734,52.984379,-15.153111,98.250542,60.101791,-150.696625,175.262833,46.514133
205,0,68.831993,41.476467,25.516710,32.197025,75.410332,52.972252,-15.180987,98.263351,60.086308,-150.469345,173.959518,45.882923
206,0,68.814285,41.469326,25.525530,32.174988,75.410767,52.977947,-15.164167,98.277206,60.085884,-150.457245,173.964127,45.901226
207,0,68.814987,41.451466,25.547670,32.170998,75.432297,52.998165,-15.152212,98.287354,60.085739,-150.450516,174.037582,45.917362
208,0,68.807510,41.458820,25.533783,32.167389,75.437019,52.986683,-15.162889,98.311417,60.084274,-150.489014,174.086807,45.933723
209,0,68.835793,41.445923,25.549156,32.159336,75.458191,52.980988,-15.172819,98.338562,60.069321,-150.482376,174.091492,45.952396
210,0,68.833862,41.432964,25.545916,32.201668,75.483170,52.955906,-15.167175,98.337494,60.056118,-150.449844,174.103348,45.939575
211,0,68.866653,41.393261,25.571115,32.206169,75.477173,52.965092,-15.142347,98.342171,60.060871,-150.450241,174.103561,45.950550
212,0,68.898842,41.387505,25.570292,32.204212,75.483437,52.947445,-15.114806,98.380707,60.035751,-150.649216,175.333038,46.525562
213,0,68.906960,41.395203,25.559628,32.210503,75.518532,52.943417,-15.115449,98.370079,60.019798,-150.677261,175.358673,46.531395
214,0,68.860825,41.381847,25.570200,32.189827,75.498100,52.931644,-15.137051,98.385612,60.007652,-150.689743,175.323425,46.514294
215,0,68.954552,41.326786,25.572567,32.178699,75.506409,52.915913,-15.137547,98.381760,59.999023,-150.711426,175.337982,46.528038
216,0,68.958382,41.320484,25.578844,32.179028,75.507187,52.916443,-15.156210,98.363609,59.964409,-150.728699,175.310974,46.529427
217,0,68.925476,41.358463,25.568645,32.184700,75.500420,52.911907,-15.195697,98.358841,59.982159,-150.747055,175.315536,46.508495
218,0,68.956635,41.353554,25.555252,32.164024,75.488594,52.900532,-15.206614,98.326363,59.963699,-150.522339,173.993500,45.867085
219,0,68.938446,41.380924,25.545366,32.139393,75.495949,52.900673,-15.231462,98.348518,59.953552,-150.493256,173.875351,45.838665
220,0,68.886681,41.435574,25.547565,32.122364,75.477379,52.898933,-15.237113,98.343246,59.966221,-150.517517,173.937164,45.883656
221,0,68.676102,41.566113,25.502361,32.110447,75.491302,52.904484,-15.254652,98.353638,59.952938,-150.769531,175.198395,46.461720
222,0,68.760330,41.484756,25.522732,32.081230,75.455879,52.891079,-15.278547,98.321533,59.970955,-150.824814,175.187103,46.490608
223,0,68.736557,41.507835,25.543077,32.070595,75.439476,52.897209,-15.312374,98.258087,59.957718,-150.848831,175.145218,46.470661
224,0,68.629417,41.596401,25.501322,32.066940,75.434586,52.889172,-15.321447,98.251549,59.952427,-150.659851,173.861115,45.818886
225,0,68.601761,41.569180,25.520357,32.054684,75.427803,52.908390,-15.324894,98.264503,59.976707,-150.624725,173.815567,45.803398
226,0,68.650383,41.573380,25.528940,32.024651,75.411232,52.945282,-15.359608,98.196190,59.944168,-150.630524,173.825867,45.806404
227,0,68.649155,41.556717,25.516855,31.997364,75.372551,52.944729,-15.380282,98.181198,59.953098,-150.838837,175.060699,46.433025
228,0,68.648186,41.557690,25.515219,31.988613,75.363426,52.911156,-15.393726,98.163132,59.949074,-150.860779,175.073715,46.412476
229,0,68.644249,41.554726,25.508636,31.984854,75.351715,52.907673,-15.395565,98.162971,59.949913,-150.872086,175.077728,46.460438
230,0,68.591843,41.548534,25.507137,31.961325,75.353493,52.913212,-15.399119,98.151505,59.951698,-150.666168,173.798492,45.823174
231,0,68.587791,41.568027,25.506578,31.958204,75.353966,52.907616,-15.425735,98.139801,59.950920,-150.701248,173.793686,45.837318
232,0,68.585785,41.567055,25.507784,31.960674,75.356323,52.903313,-15.442318,98.146599,59.950348,-150.941254,175.078781,46.446239
233,0,68.584694,41.564754,25.507980,31.961020,75.373047,52.889736,-15.400650,98.170158,59.942959,-150.639557,173.747604,45.788727
234,0,68.568489,41.565639,25.507576,31.942312,75.373131,52.882496,-15.418701,98.171715,59.933445,-150.673721,173.786514,45.802689
235,0,68.572517,41.561562,25.495802,31.943232,75.373940,52.884098,-15.399898,98.181595,59.931564,-150.662491,173.864822,45.819984
236,0,68.608734,41.565319,25.520573,31.941586,75.374672,52.883129,-15.425715,98.161942,59.899509,-150.629776,173.782440,45.848495
237,0,68.617981,41.550671,25.513729,31.957771,75.363564,52.884834,-15.401947,98.149467,59.933018,-150.648819,173.727341,45.794872
238,0,68.563057,41.554115,25.492857,31.923029,75.344193,52.881420,-15.434189,98.133934,59.900742,-150.701218,173.795990,45.837910
239,0,68.565727,41.565006,25.469501,31.923685,75.341980,52.890957,-15.451612,98.140358,59.900036,-150.674622,173.726654,45.826733
240,0,68.575005,41.551575,25.510429,31.924847,75.338783,52.886589,-15.455347,98.138664,59.900013,-150.857132,175.022079,46.438267
241,0,68.591042,41.549122,25.511040,31.923243,75.339607,52.886093,-15.481570,98.156082,59.886749,-150.861633,175.030060,46.441635
242,0,68.594772,41.532078,25.486481,31.918451,75.330353,52.883774,-15.434439,98.122726,59.890793,-150.857162,175.005264,46.445652
243,0,68.590240,41.535595,25.526684,31.916685,75.336723,52.875332,-15.472567,98.105225,59.864296,-150.887589,175.042282,46.460850
244,0,68.574112,41.558399,25.500566,31.934656,75.346848,52.850975,-15.479063,98.126450,59.835052,-150.673950,173.739227,45.862476
245,0,68.547340,41.562374,25.495323,31.906960,75.358459,52.840664,-15.473091,98.141701,59.835274,-150.894165,175.047882,46.460003
246,0,68.537544,41.561020,25.516056,31.896435,75.393745,52.829220,-15.486927,98.162956,59.795422,-150.640137,173.725494,45.793858
247,0,68.536316,41.576897,25.510822,31.889317,75.415367,52.787601,-15.494211,98.206398,59.771381,-150.687149,173.802414,45.789886
248,0,68.531296,41.604080,25.492916,31.867231,75.440086,52.770496,-15.486999,98.235085,59.737659,-150.670807,173.845200,45.797489
249,0,68.529282,41.589985,25.510214,31.876732,75.469246,52.743843,-15.495601,98.304718,59.689655,-150.663101,173.796646,45.695251
250,0,68.529869,41.615242,25.493040,31.882803,75.498878,52.729362,-15.509306,98.331078,59.636284,-150.677811,173.792526,45.676899
251,0,68.531929,41.619179,25.484686,31.876154,75.538780,52.691372,-15.451211,98.346130,59.593025,-150.650909,173.804367,45.614487
252,0,68.525299,41.627190,25.496550,31.908251,75.548485,52.677158,-15.461669,98.395645,59.561527,-150.654800,173.814377,45.649513
253,0,68.610565,41.632797,25.522322,31.890162,75.607246,52.661659,-15.440676,98.393234,59.525715,-150.621185,173.812668,45.601566
254,0,68.573662,41.636127,25.489429,31.900745,75.610641,52.675690,-15.460796,98.418663,59.505508,-150.620621,173.820328,45.636398
255,0,68.570786,41.639095,25.493711,31.937290,75.594833,52.675991,-15.425536,98.407906,59.554413,-150.619949,173.817230,45.635300
256,0,68.686478,41.608818,25.490948,31.986479,75.584282,52.701054,-15.394335,98.421310,59.594700,-150.559662,173.935883,45.751709
257,0,68.747040,41.593414,25.481773,32.081169,75.561722,52.756390,-15.277116,98.374161,59.708992,-150.686447,175.257156,46.560047
258,0,68.813141,41.541134,25.457731,32.218521,75.512032,52.828003,-15.105614,98.389900,59.870090,-150.626312,175.290665,46.713158
259,0,68.933960,41.507202,25.426434,32.454308,75.505333,52.970490,-14.873277,98.449677,60.152069,-150.420822,176.550690,47.231991
260,0,69.069031,41.433857,25.433666,32.759331,75.498749,53.172314,-14.546850,98.503387,60.540604,-149.983078,174.177063,46.839432
261,0,69.231064,41.417114,25.425348,33.108112,75.455406,53.447327,-14.125063,98.665970,61.172089,-149.660950,174.364838,47.594112
262,0,69.393784,41.352806,25.440708,33.605671,75.398445,53.832878,-13.560355,98.857826,62.056320,-149.458984,175.976944,49.101673
263,0,69.574936,41.348145,25.455740,34.288811,75.394127,54.411243,-12.931424,99.141273,63.325645,-148.983887,177.415924,50.285759
264,0,69.753807,41.368332,25.552759,35.156460,75.383919,55.162643,-12.020489,99.701920,65.131966,-148.219116,177.735886,51.527809
265,0,69.898384,41.378845,25.690172,36.249172,75.338135,56.186264,-10.895687,100.289612,67.250511,-147.221939,177.564056,52.573002
266,0,69.787903,41.419178,25.393862,37.600464,75.490387,57.703548,-9.402402,101.040871,69.945274,-146.261154,178.460861,54.736950
267,0,69.534828,41.362465,25.322416,39.244717,75.482208,59.536354,-7.585916,101.975349,73.114204,-144.701965,178.864822,56.763081
268,0,69.014267,41.362026,25.658508,40.987793,75.616959,61.936302,-5.467966,103.194267,76.640244,-142.667953,178.187775,58.432053
269,0,69.580582,41.751110,27.473904,42.972729,75.960999,64.855431,-3.007194,104.284218,80.570480,-140.647232,178.959671,60.856850
270,0,71.217766,42.117481,31.283606,45.210056,76.566841,68.849609,-0.605439,105.393463,84.690483,-138.274612,179.864517,63.574394
271,0,74.216347,42.872959,36.829346,47.735828,77.551720,74.010925,1.761753,106.677162,89.100761,-135.615982,180.550110,66.359123
272,0,78.000916,44.049084,43.626961,50.522507,78.869049,80.027252,4.277816,107.819382,93.825172,-132.934723,181.622910,69.442856
273,0,82.304710,45.628742,50.994476,53.638618,80.433304,86.574547,6.888283,108.944649,98.942528,-129.585022,182.147537,72.678017
274,0,86.874107,47.450630,58.314877,56.988617,82.103935,93.336685,9.635048,110.051956,104.367104,-126.519501,183.222519,75.905869
275,0,91.470360,49.351070,65.595192,60.535851,83.692398,100.130363,12.707886,111.214600,110.036636,-123.024055,184.059998,79.441483
276,0,95.931519,51.100689,72.787102,64.240311,85.248291,106.960526,16.099165,112.425133,115.818855,-119.224197,184.902908,83.207291
277,0,100.889595,53.122383,79.870689,68.237923,86.850327,113.752823,19.789820,113.750290,121.616722,-115.076073,185.773819,87.007904
278,0,105.964233,55.025135,87.035233,72.580811,88.504753,120.490173,23.816978,115.187584,127.412079,-110.436630,187.805740,91.278992
279,0,111.291710,56.872025,94.130363,77.209351,90.246529,127.166939,28.309978,116.753990,133.077194,-105.803993,188.591354,95.108582
280,0,117.148567,58.761845,101.227158,82.280983,92.111900,133.591324,33.165661,118.411034,138.549347,-100.743515,189.303589,98.756821
281,0,123.200554,60.578087,108.036949,87.712555,93.984192,139.791885,38.514874,120.152138,143.698990,-94.677467,190.089172,102.451401
282,0,129.539856,62.308514,114.522392,93.569138,95.890762,145.639465,44.360695,121.852692,148.490585,-88.517754,191.315018,106.032692
283,0,136.173630,63.983681,120.580017,99.834488,97.877510,151.011154,50.710892,123.705490,152.972137,-81.835922,192.612610,109.618416
284,0,142.922195,65.682091,126.071495,106.637245,99.871483,155.914566,57.532688,125.909775,157.172867,-74.838112,193.900314,113.096474
285,0,150.670120,67.557182,130.817856,113.742928,101.775330,160.226364,64.729111,127.821106,160.909286,-67.769470,195.254440,116.662346
286,0,158.582642,69.687416,134.792023,121.148872,103.733490,163.868652,72.174446,129.589401,164.248459,-60.415932,196.243240,120.110031
287,0,166.715057,72.140755,137.886215,128.967941,105.660736,167.031006,79.899887,131.093521,167.264496,-53.081047,197.207779,123.676727
288,0,175.305435,74.782410,140.528793,136.904175,107.616539,169.708786,87.669739,132.309326,170.073990,-45.856277,197.946884,127.264244
289,0,183.914017,77.497047,142.637527,145.009674,109.445496,171.987335,95.391129,133.320602,172.663193,-38.689636,198.543396,130.788239
290,0,192.531815,80.149529,144.542282,153.087738,111.183731,174.138504,103.146675,134.143066,174.995880,-31.529083,198.990036,134.187943
291,0,201.045044,82.630592,146.408875,161.029007,112.820648,176.132141,110.831993,135.002014,177.126495,-24.381731,199.503952,137.327789
292,0,209.343628,84.797768,148.275208,168.934692,114.315094,178.125687,118.475693,135.848663,179.095581,-17.037046,199.946075,140.212830
293,0,217.504623,86.463951,150.247238,176.694778,115.674530,180.001495,126.120331,136.751572,180.900726,-9.542934,200.436951,142.728668
294,0,225.375626,87.802681,152.051544,184.485382,116.847382,181.717911,133.850433,137.780899,182.486115,-1.830098,201.093079,145.000137
295,0,233.128098,88.716560,153.504456,192.239136,117.900352,183.163727,141.673019,138.917908,183.777847,5.978277,201.727066,146.982574
296,0,240.867142,89.443993,154.577820,200.106033,118.850288,184.177765,149.514252,140.188385,184.648865,13.968932,202.417328,148.654602
297,0,248.593414,90.250908,154.958771,208.082870,119.797882,184.663101,157.880997,141.319550,185.169525,21.937441,203.157440,150.261353
298,0,256.499084,91.195549,154.802795,216.124908,120.795891,184.619888,166.071686,142.485489,185.334305,29.801416,203.692261,151.759232
299,0,264.511139,92.619980,153.951080,224.136841,121.906662,184.069992,174.288559,143.476074,185.182236,37.431347,204.081940,153.189560
300,0,272.639618,94.479927,152.577179,231.935379,123.078552,183.171814,182.193283,144.266129,184.766785,44.545204,204.206985,154.574402
301,0,280.649719,96.841408,150.870972,239.970352,124.146225,181.993408,189.955856,144.465897,184.265991,51.255535,204.189072,155.840591
302,0,288.482910,99.034760,149.060669,247.401840,125.358253,180.685974,197.204971,144.560089,183.580109,57.600712,203.940720,157.023392
303,0,295.984192,100.991547,147.512970,254.573349,126.395775,179.384613,204.076035,144.537521,182.694748,63.830921,203.602676,157.978287
304,0,303.127472,102.485260,146.164673,261.378723,127.149567,178.177872,210.669540,144.595520,181.805344,69.826088,203.311859,158.701401
305,0,309.712067,103.195984,145.005676,267.883606,127.690208,177.123535,217.059265,144.720123,180.932465,75.905602,203.106262,159.091278
306,0,315.855042,103.458099,143.927353,274.116852,128.001251,176.162857,223.310272,144.969742,180.117340,81.978088,203.032150,159.220428
307,0,321.744476,103.207481,142.948166,280.231201,128.180313,175.167236,229.576248,145.276749,179.198059,87.932129,203.300629,159.222549
308,0,327.430389,102.720222,141.844528,286.230957,128.184128,174.057907,235.548782,145.824234,178.075165,94.339783,203.487000,158.749802
309,0,333.084747,102.226952,140.459564,292.171753,128.188812,172.573364,241.815811,146.302856,176.644730,100.532791,203.775421,158.238358
310,0,338.573120,101.392876,138.692764,297.979034,128.218292,170.648773,248.042862,146.747452,174.837616,106.652245,204.126678,157.747757
311,0,343.970062,101.307449,136.035889,303.703705,128.146454,168.172623,254.176163,147.008560,172.701309,112.094513,204.390427,157.518539
312,0,349.504730,101.502457,132.968033,309.217957,128.059204,165.380249,260.092377,146.875565,170.295639,117.178108,204.316055,157.308334
313,0,354.724152,101.834526,129.504395,314.594849,128.009705,162.263321,265.364838,146.324310,168.037003,122.421486,203.594284,156.659882
314,0,359.512787,102.659851,126.001625,319.620728,128.041916,159.212921,270.249817,145.584427,165.799164,126.788498,203.059891,156.341492
315,0,364.548370,103.242920,122.919907,324.428162,128.112122,156.372604,274.836426,144.886200,163.719650,130.681091,202.580246,155.934998
316,0,368.982727,104.021202,120.246727,328.903931,128.125992,154.002502,279.180969,144.335190,161.888901,135.026566,201.955872,155.029510
317,0,373.322906,104.335945,118.489098,333.033478,128.197052,152.145813,283.221161,143.999146,160.262634,138.958267,201.624649,154.125916
318,0,377.247681,104.352196,117.167404,336.846375,128.204697,150.633347,287.064697,143.843124,158.767807,142.805145,201.422363,153.121689
319,0,380.962036,104.128868,116.027046,340.488831,128.250488,149.237671,290.729309,143.767700,157.246933,146.165573,201.577805,152.267776
320,0,384.334778,103.385506,114.873795,343.830933,128.182404,147.682861,294.258057,143.708099,155.629868,149.675934,201.751602,151.217484
321,0,387.418732,102.936829,113.126152,347.037659,127.921310,145.786148,297.596497,143.516037,153.788254,152.695206,202.102081,150.317291
322,0,390.163940,101.822624,111.092033,349.957916,127.478119,143.500397,300.780396,143.186905,151.831955,155.607651,202.422684,149.417206
323,0,392.718719,101.148178,108.474754,352.620544,126.831802,140.937134,303.762787,142.697632,149.718567,159.247070,202.056885,148.395706
324,0,394.926758,100.120552,105.743523,355.066223,126.100304,138.236893,306.500702,142.080414,147.557816,162.196701,202.171371,147.399216
325,0,396.911438,98.835365,103.022827,357.627625,125.415070,135.547302,309.109406,141.479507,145.376266,164.942093,201.724274,146.203537
326,0,398.708130,97.916191,100.216553,359.847321,124.652649,132.979202,311.491791,140.928741,143.275909,167.135117,201.808136,145.325577
327,0,400.446930,97.135262,97.484352,361.851471,123.924576,130.556244,313.763519,140.477127,141.158920,169.291214,201.771988,144.229111
328,0,402.072815,96.752998,94.502174,363.694702,123.368752,127.972008,315.837616,140.086609,138.920731,171.862473,201.463242,142.776184
329,0,403.620514,96.307617,91.415451,365.475433,122.984436,125.112297,317.847565,139.723724,136.610992,173.804520,201.350876,141.583923
330,0,405.031860,96.547318,87.755974,367.155396,122.841225,121.949158,319.556061,139.271790,134.096741,175.561584,201.161896,140.354645
331,0,406.281006,97.261307,83.653732,368.665344,122.772606,118.596870,321.011841,138.744675,131.569016,176.796555,201.121368,139.321548
332,0,407.693237,97.221603,81.263519,369.951996,122.938423,115.824799,322.241913,138.144775,129.019745,177.978073,201.065521,138.153473
333,0,408.703735,96.675865,80.656380,370.315216,122.973343,114.618103,323.065735,137.719955,126.968506,179.304077,200.990891,136.680786
334,0,409.589355,95.699768,80.020958,370.547150,122.109894,113.757286,323.683319,137.279083,125.297371,180.651321,200.990662,134.919479
335,0,410.047302,95.127228,79.429893,370.751068,121.350601,113.559235,323.917053,136.904221,124.366501,181.406296,201.254852,133.323349
336,0,410.337402,94.597488,79.129311,370.971039,120.998993,113.716743,324.103729,136.884171,123.983124,181.638138,201.981369,132.009659
337,0,410.431610,94.603462,78.900520,371.450378,121.161087,114.109962,324.354889,137.506393,123.997780,182.275650,202.568634,130.382126
338,0,410.449219,94.662010,78.749046,371.966461,121.705170,114.683594,324.840942,138.652603,124.181992,183.344681,203.055023,128.546890
339,0,410.513550,94.826653,78.637184,372.499664,122.490974,114.999352,325.427643,139.988022,124.225395,184.023148,203.920105,127.197342
340,0,411.112518,95.004425,78.469261,373.070404,123.344818,114.602516,326.060089,141.207718,123.598869,184.733902,204.947983,126.253281
341,0,411.557159,95.293709,78.080315,373.888397,124.664330,113.913422,326.701691,142.253418,122.981743,185.455292,206.256180,125.562744
342,0,411.918335,95.726425,77.619896,374.704559,125.992867,113.374237,327.657471,143.588608,122.534767,185.857346,207.836884,125.180511
343,0,412.375244,96.015701,77.320343,375.522339,127.099770,112.899796,328.627350,144.886703,122.103767,186.755249,209.252747,124.648453
344,0,412.829193,95.940063,77.096024,376.236389,127.849426,112.463821,329.363525,145.636749,121.618797,188.053024,210.165375,123.851151
345,0,413.220459,96.188377,76.553268,376.857483,128.383316,112.000206,330.023712,146.195770,121.058372,188.832947,211.007889,123.510544
346,0,413.730896,96.232964,76.180679,377.585052,129.085342,111.342865,330.820679,146.775497,120.346298,189.336823,211.782883,123.381760
347,0,414.285156,96.271027,75.785667,378.346497,129.742691,110.621964,331.658112,147.380829,119.628159,189.524887,212.808044,123.550934
348,0,414.879089,96.419518,75.343117,379.114044,130.365692,109.902077,332.488434,147.997437,118.925659,190.977173,212.994522,122.957100
349,0,415.424561,96.728737,75.009247,379.898285,130.945602,109.244324,333.224579,148.514786,118.398865,191.940903,213.149796,122.429947
350,0,415.825134,96.796471,74.641235,380.596588,131.449646,108.661331,333.879395,148.958679,118.037018,191.854263,214.064148,122.869469
351,0,416.231079,96.832657,74.465591,381.119659,131.720642,108.342186,334.374084,149.332581,117.873726,192.458282,214.577652,122.828339
352,0,416.553802,96.564621,74.578514,381.548187,131.814896,108.240501,334.812592,149.598816,117.890434,193.881226,214.493149,122.081940
353,0,416.878021,96.221626,74.642380,381.880676,131.683105,108.206627,335.176910,149.789062,117.938797,194.280975,215.298660,122.267700
354,0,417.121033,96.108521,74.638672,382.269318,131.634354,108.248550,335.566254,150.032974,118.026039,194.960419,215.791199,122.184547
355,0,417.604919,96.354553,74.574028,382.848602,131.883392,108.212288,336.015778,150.361923,118.098549,195.219788,216.420334,122.476959
356,0,418.082611,96.475380,74.468300,383.549622,132.284119,108.055626,336.616241,150.674393,118.188110,196.061752,216.804932,122.550308
357,0,418.471527,96.550621,74.437538,384.298737,132.535904,108.055336,337.282837,151.054474,118.547348,197.436722,216.961121,122.490112
358,0,418.636658,96.669037,74.343475,384.916077,132.579727,108.376495,337.957520,151.417938,119.194809,197.646240,217.545944,123.172722
359,0,418.881317,96.558189,74.641319,385.429901,132.435684,109.045456,338.494293,151.682602,120.120636,198.542740,217.772034,123.547409
360,0,418.989197,96.511795,74.888977,385.830170,132.153656,109.819305,338.989899,151.754135,121.154732,199.728455,217.736221,123.933662
361,0,419.099030,96.392632,75.414825,386.133789,131.749191,110.717400,339.295074,151.662354,122.216888,200.204498,217.605316,124.569366
362,0,419.326019,96.020943,76.391106,386.292023,131.257034,111.798782,339.446442,151.371246,123.229187,200.554306,217.257523,125.178871
363,0,419.495056,95.707375,77.692764,386.285675,130.969482,113.057739,339.455994,151.118774,124.217781,200.836380,216.748871,125.807571
364,0,419.474792,95.372635,79.179062,386.224030,130.674103,114.441772,339.259552,150.840134,125.315964,200.418045,216.449020,126.656204
365,0,419.616913,94.964195,81.224640,385.866089,130.238113,116.110245,338.885162,150.455582,126.484886,200.828918,215.869736,127.083359
366,0,419.057861,94.693367,83.283638,385.383362,129.973618,118.002014,338.320648,150.121780,127.914551,199.887070,215.663010,128.148407
367,0,418.522644,94.553398,85.419678,384.821198,129.810913,119.951233,337.665619,149.904831,129.594177,199.675812,215.197037,128.985458
368,0,417.855835,94.212746,87.852089,383.982971,129.775391,122.070175,336.779205,149.776840,131.562744,198.167435,215.191757,130.388718
369,0,416.645325,94.040039,90.211693,382.929047,129.735855,124.344315,335.709900,149.727371,133.861450,197.300049,215.053375,131.532303
370,0,415.059784,93.658806,93.127678,381.442749,129.612473,126.980003,334.253418,149.709198,136.407822,195.292862,215.332535,133.137482
371,0,413.308014,93.182228,96.711586,379.556732,129.479126,130.143433,332.346466,149.675293,139.253555,193.922577,215.330475,134.387878
372,0,411.129486,92.683540,100.890915,377.243378,129.379517,133.680756,330.020630,149.609146,142.307434,191.683502,215.550415,135.933731
373,0,408.663147,92.106735,105.495445,374.484955,129.136017,137.574432,327.293701,149.428284,145.552750,188.578293,215.945892,137.823578
374,0,405.784088,91.547890,110.230591,371.317871,128.896301,141.691666,324.140472,149.310028,148.919525,185.725998,216.059875,139.539352
375,0,402.550323,90.970413,115.140015,367.671326,128.542908,145.905930,320.621094,149.082108,152.358688,182.474304,216.195419,141.367416
376,0,398.911102,90.467484,119.981155,363.709351,128.206573,150.200958,316.682953,148.895859,155.843536,179.548447,216.115372,142.894196
377,0,395.000732,89.908379,124.742088,359.481171,127.955452,154.332687,312.443420,148.785110,159.184158,175.575882,216.404282,144.760895
378,0,390.573517,89.743729,128.840363,354.894257,127.789871,158.307800,307.876953,148.644806,162.419693,171.831879,216.182388,146.095154
379,0,385.920990,89.576637,132.463455,350.075317,127.651321,161.874756,303.110657,148.478119,165.398361,167.039230,216.710785,148.057220
380,0,381.022797,89.392586,135.476624,345.111755,127.480583,164.963943,298.191254,148.318344,168.222305,162.418930,217.129333,149.944794
381,0,375.793518,89.153900,137.948151,339.978302,127.294121,167.627396,293.118408,148.120789,170.780060,157.575424,217.572617,151.663589
382,0,370.421112,88.714256,140.252350,334.551117,126.994743,169.900162,287.854797,147.940262,173.013641,152.410583,218.206833,153.274658
383,0,364.694397,88.657372,141.823792,328.993256,126.716255,171.825241,282.345459,147.687668,175.093140,147.110168,218.842758,154.688995
384,0,358.637726,88.406960,143.329269,323.247864,126.532257,173.494659,276.651917,147.506821,176.820190,141.633835,219.619995,155.765137
385,0,352.780060,88.084389,144.919708,317.258118,126.360031,174.943451,270.733398,147.476517,178.250732,136.116013,220.385269,156.549072
386,0,346.547363,88.191063,146.130508,311.228607,126.349258,176.231491,264.629944,147.921844,179.404282,130.407990,221.183563,157.104614
387,0,340.622040,88.221878,147.307236,305.167816,126.448479,177.300140,258.476898,148.291626,180.238586,124.668961,221.896133,157.390869
388,0,334.591736,88.321556,148.208374,299.018524,126.603706,178.004105,252.397324,148.472931,180.775177,118.867668,222.655716,157.430466
389,0,328.475311,88.347511,148.825256,292.889801,126.720322,178.448196,246.388123,148.666733,181.024460,113.067635,223.270126,157.350327
390,0,322.424835,88.488701,148.943192,286.860504,126.806023,178.511627,240.215317,148.929779,180.944855,107.268127,223.932938,157.038239
391,0,316.509674,88.838104,148.451294,280.716156,127.059746,178.166718,234.241150,149.200546,180.590591,101.413490,224.641815,156.736008
392,0,310.438385,89.102150,147.464813,274.846069,127.219048,177.442810,228.468628,149.496170,180.014542,95.615540,225.376190,156.215271
393,0,304.596313,89.493530,146.087692,269.231506,127.506226,176.332840,222.855301,149.885956,179.095123,89.958221,226.101303,155.589905
394,0,299.060211,89.878624,144.476303,263.718842,127.879501,174.978500,217.388626,150.379456,178.072006,84.486076,226.909332,154.861893
395,0,293.508881,90.648361,142.395599,258.320557,128.370575,173.416519,212.073425,150.930695,176.805450,78.934532,227.677628,154.009583
396,0,288.076202,91.175102,140.422974,252.846329,128.894516,171.696838,206.770386,151.537308,175.350815,73.624687,228.450989,152.944641
397,0,282.664459,91.935555,138.225189,247.850250,129.403946,169.841354,201.573227,152.138351,173.694611,68.284752,229.182388,151.645340
398,0,277.454956,92.353371,136.205872,242.564926,129.942856,167.878067,196.411560,152.759201,171.904800,63.132702,229.878967,150.187851
399,0,272.229156,92.910355,133.947784,237.468964,130.377411,165.829300,191.408249,153.262909,169.919205,58.145973,230.616287,148.658798
400,0,267.024231,93.220352,131.657913,232.500427,130.695602,163.669556,186.484055,153.751450,167.846573,53.260487,231.287567,147.066422
401,0,262.213318,93.609329,129.233398,227.735779,131.014771,161.374313,181.761002,154.161774,165.666809,48.492271,231.949585,145.412827
402,0,257.496521,93.984383,126.638680,223.149384,131.371994,158.947464,177.212036,154.661392,163.423859,43.899910,232.542023,143.803833
403,0,252.975616,94.842834,123.558266,218.865662,131.740128,156.352539,172.757782,155.224167,161.100052,39.283344,233.383545,142.362076
404,0,248.771500,95.652458,120.407867,214.799072,132.327866,153.555862,168.725052,155.795273,158.696198,35.139683,233.549835,140.422806
405,0,244.771408,96.522621,117.114540,210.974411,133.021790,150.653488,164.958099,156.386475,156.198898,30.976736,233.997162,138.742706
406,0,241.033051,97.483383,113.735870,207.352402,133.754822,147.664871,161.419205,157.009079,153.660110,27.050406,234.503372,137.018738
407,0,237.501160,98.363312,110.310417,204.046310,134.454544,144.683640,158.037384,157.675369,151.128830,23.425447,235.024109,135.353989
408,0,234.191971,99.365372,106.942963,201.031876,135.248993,141.738617,154.964951,158.387604,148.610168,19.915890,235.464859,133.663483
409,0,230.881790,100.429634,103.594688,198.143707,136.089706,138.778488,152.049973,159.180466,146.123322,16.494371,236.192062,132.231171
410,0,228.057373,101.644356,100.430756,195.426620,137.177032,135.971130,149.371719,160.087219,143.688126,13.546238,236.349548,130.212357
411,0,225.665619,103.026146,97.551559,192.969742,138.432571,133.234970,146.803055,161.150726,141.290283,10.578256,236.840195,128.409073
412,0,223.344055,104.394753,94.957214,190.718704,139.751251,130.692566,144.515045,162.254852,138.951447,7.919020,237.384476,126.506332
413,0,221.293503,105.553009,92.665306,188.605377,141.098663,128.309845,142.304367,163.371780,136.661163,5.358479,237.821304,124.628265
414,0,219.357407,107.130135,90.328125,186.437469,142.782150,126.014847,140.178070,164.453903,134.394028,2.916645,238.270126,122.742020
415,0,217.671448,108.433968,88.232620,184.638672,143.877975,123.733459,138.185425,165.457413,132.159546,0.695469,238.649048,120.869965
416,0,215.925323,109.651970,86.180161,182.848816,145.080002,121.508759,136.322403,166.462265,129.989655,-1.387849,238.953262,119.059593
417,0,214.583801,110.962738,84.078712,181.184692,146.196045,119.422913,134.607071,167.262451,127.861290,-3.391568,239.155884,117.241455
418,0,213.175323,112.186592,81.912544,179.628082,147.397079,117.349480,132.908264,168.055069,125.803589,-5.390592,239.349808,115.629669
419,0,211.671371,113.216393,79.581055,178.179688,148.102127,115.125427,131.405838,168.642990,123.859779,-7.139648,239.435165,114.075989
420,0,210.506210,114.289955,77.201431,176.760635,148.788147,113.041885,130.000748,169.199265,122.017052,-8.906773,239.593307,112.783943
421,0,209.115204,115.164536,74.924271,175.460541,149.458817,110.863449,128.642365,169.738037,120.242912,-10.537192,239.711349,111.537338
422,0,207.907578,115.698990,73.200165,174.367996,150.155518,109.041039,127.364380,170.357559,118.837379,-12.084763,239.932648,110.340080
423,0,206.201569,115.781960,71.769081,173.196808,150.698120,107.582336,126.146820,170.952209,117.774414,-13.529382,240.287231,109.312126
424,0,204.353287,115.911713,70.515274,171.706512,150.736176,106.467445,124.705009,171.112885,116.853813,-14.838381,240.621307,108.414116
425,0,202.840393,115.751999,69.625320,170.229416,150.776077,105.719055,123.344170,171.353683,116.232498,-16.594751,241.121002,107.910027
426,0,201.300507,116.104164,68.792732,168.939240,150.905518,105.095764,121.987190,171.457016,115.709381,-18.020111,240.748596,107.110748
427,0,200.024811,116.369728,68.161415,167.661957,151.063980,104.604294,120.634048,171.434540,115.312973,-19.424410,240.579407,106.616631
428,0,198.780792,116.692398,67.657364,166.476822,151.184601,104.280029,119.397026,171.488892,115.051529,-20.921980,240.524323,106.328506
429,0,197.745056,116.800415,67.345055,165.379349,151.452667,103.969460,118.293457,171.624420,114.904831,-22.176220,240.423569,106.054268
430,0,196.528610,117.203728,66.640984,164.434967,151.691116,103.622971,117.287857,171.664764,114.704468,-23.368923,240.448730,105.871552
431,0,195.193939,117.173027,66.053169,163.538116,151.783981,103.395119,116.364815,171.713165,114.513870,-24.448351,240.601456,105.840530
432,0,194.370941,117.380119,65.954300,162.629349,152.011719,103.308456,115.532471,171.735718,114.479454,-25.325756,240.746597,105.857254
433,0,193.408447,117.527260,65.724648,161.875122,152.161713,103.262032,114.720490,171.681381,114.513092,-26.188269,240.826294,105.916412
434,0,192.798767,117.834473,65.540947,161.194199,152.282684,103.186836,113.984146,171.581970,114.555817,-27.035387,240.762924,106.069427
435,0,192.203293,117.961311,65.540260,160.497360,152.449966,103.150276,113.215889,171.411835,114.651543,-27.856091,240.567200,106.264801
436,0,191.382278,117.806419,65.559509,159.835419,152.278229,103.155479,112.564468,171.173325,114.787697,-28.660624,240.465027,106.566521
437,0,191.059296,117.493805,65.623055,159.321152,151.966965,103.256577,112.122131,170.816528,114.958023,-29.171064,240.287842,106.860611
438,0,190.655762,117.621552,65.423683,159.004364,151.746826,103.356026,111.814041,170.474884,115.225853,-29.458174,240.106949,107.182526
439,0,190.248840,117.566002,65.236153,158.815613,151.587051,103.567345,111.605804,170.151993,115.560356,-29.670542,239.948166,107.605850
440,0,189.880325,117.626945,65.147713,158.601151,151.396866,103.859665,111.421394,169.762833,115.909363,-29.824862,239.717667,107.941925
441,0,189.502579,117.428322,65.092026,158.408905,151.088150,104.152245,111.201416,169.350327,116.252884,-29.977736,239.445496,108.265694
442,0,189.471588,117.771881,64.896324,158.159561,150.818222,104.418221,111.003288,168.950577,116.522667,-30.123447,239.120163,108.546219
443,0,189.332642,117.754494,64.920494,157.953949,150.573349,104.615074,110.749298,168.594223,116.734436,-30.327579,238.865646,108.636566
444,0,189.230896,117.788162,64.964165,157.716400,150.347778,104.746925,110.495590,168.268204,116.826996,-30.815519,238.799332,108.710342
445,0,189.222931,117.871887,65.016113,157.478043,150.224945,104.796860,110.257156,168.099762,116.849144,-31.086639,238.669968,108.564392
446,0,189.216934,117.875916,65.217514,157.297043,150.359650,104.734001,109.976357,168.069534,116.759041,-31.316484,238.542236,108.294670
447,0,189.051163,118.089539,65.288078,157.006470,150.585373,104.598381,109.636124,168.174652,116.610039,-31.644199,238.628021,107.972206
448,0,188.895615,118.339348,65.506325,156.634583,150.764557,104.470306,109.172157,168.318146,116.418793,-32.121136,238.991119,107.671585
449,0,188.602188,118.680183,65.551056,156.122025,150.961319,104.278328,108.670349,168.530121,116.130798,-32.351181,238.885300,107.023216
450,0,188.219894,118.662880,65.738312,155.534103,151.109314,104.012390,108.151764,168.771469,115.826088,-32.784996,239.080490,106.403915
451,0,187.752701,118.629593,65.983231,154.894363,151.171158,103.793839,107.597191,169.105362,115.511307,-33.334064,239.376205,105.808136
452,0,187.419128,118.477036,66.381638,154.264587,151.368759,103.572563,107.060875,169.392456,115.186646,-33.850502,239.640106,105.277336
453,0,187.035721,118.534454,66.664482,153.633408,151.596527,103.238998,106.486320,169.810089,114.781189,-34.438351,239.880585,104.766403
454,0,186.692245,118.718277,66.830566,153.074646,151.935089,102.837204,105.908089,170.207657,114.370995,-35.101738,240.160446,104.215149
455,0,186.289841,118.780067,67.091087,152.534363,152.195541,102.455360,105.410866,170.590942,114.002998,-35.668671,240.446899,103.680222
456,0,186.009186,118.914772,67.402191,151.990311,152.373154,102.121544,104.970383,171.001617,113.675728,-36.287548,240.659439,103.224602
457,0,185.651215,119.098869,67.648460,151.480927,152.721237,101.842880,104.572533,171.376663,113.529846,-36.824154,240.768585,102.830345
458,0,185.129654,119.208611,67.858170,151.087143,152.874222,101.642769,104.164948,171.637482,113.577148,-37.319885,240.744858,102.570473
459,0,184.594757,119.248711,68.197807,150.579315,152.672058,101.668915,103.669350,171.728241,113.882133,-37.883728,240.668716,102.515327
460,0,183.989960,119.248871,68.573769,150.015335,152.248474,101.913933,103.055801,171.658157,114.496460,-38.444359,240.293060,102.538261
461,0,183.475571,119.401665,69.114296,149.555450,151.684967,102.260582,102.394707,171.480026,115.396866,-39.257885,239.827347,102.800148
462,0,182.801895,119.474083,69.654327,149.114273,151.065674,102.715912,101.713692,171.205399,116.526184,-40.224205,239.076752,103.194733
463,0,182.147949,119.506569,70.166626,148.529922,150.681976,103.614433,101.011963,170.720032,117.804298,-41.244270,238.165466,103.678192
464,0,181.702118,119.753326,70.904274,147.976624,149.813171,104.853401,100.277878,170.223206,119.244492,-42.190350,237.069092,104.209923
465,0,181.359894,119.958733,72.084351,147.443298,149.140991,106.281487,99.431664,169.484711,120.854889,-43.185799,235.844849,104.800659
466,0,181.125046,120.069717,74.352180,146.652359,148.837738,108.171104,98.273285,168.674789,122.668022,-44.309605,234.606216,105.549538
467,0,181.042542,119.922989,78.074539,145.577332,148.190506,110.991646,96.812180,167.703522,124.676086,-45.630638,233.289368,106.307938
468,0,180.926041,119.565285,82.843323,144.167862,147.370529,114.577171,95.082603,166.520721,126.952591,-47.083080,231.954086,107.140869
469,0,180.525696,119.056122,88.121086,142.475861,146.495682,118.506866,93.028160,165.151993,129.452377,-48.753147,230.521774,107.991394
470,0,179.775757,118.354904,93.393837,140.556808,145.371429,122.644447,90.762581,163.579346,132.131561,-50.459442,229.021088,108.836540
471,0,178.468521,117.082489,98.532547,138.333542,144.033844,126.808670,88.247337,161.810501,134.942947,-52.203861,227.368378,109.674721
472,0,176.620499,115.306953,103.316360,135.880280,142.371582,131.031433,85.515816,159.878784,137.855530,-54.216499,225.837189,110.443573
473,0,174.204468,112.956451,107.773773,133.071869,140.161484,135.149017,82.546379,157.653168,140.758972,-56.278683,224.134308,111.106705
474,0,171.292236,109.928528,111.940544,129.846649,137.525528,139.142380,79.314789,155.213196,143.584198,-58.420609,222.259811,111.664703
475,0,167.848022,106.228035,115.872871,126.297012,134.434113,142.934113,75.784882,152.471710,146.190323,-60.717640,220.351364,112.004845
476,0,163.948654,101.909637,119.451500,122.370689,130.840622,146.404480,71.964615,149.378387,148.591766,-63.125149,218.264587,112.292892
477,0,159.433685,96.779411,122.685860,118.138847,126.548363,149.532806,67.995323,146.025604,150.590210,-65.701149,216.121841,112.397987
478,0,154.436111,91.092453,125.435501,113.648621,121.663528,152.044022,63.840187,142.549011,152.304672,-68.359314,213.984711,112.357292
479,0,149.019821,84.773643,127.750900,108.855576,116.811317,154.128220,59.617683,139.015579,153.566116,-71.031456,211.855515,112.079681
480,0,143.464294,78.531250,129.417038,103.913284,111.866791,155.704071,55.426014,135.516510,154.464066,-73.761879,209.706848,111.631462
481,0,137.726913,72.475929,130.504135,98.947144,106.883354,156.728485,51.188046,132.019180,155.001556,-76.619949,207.570084,110.965118
482,0,132.107513,66.802406,131.038269,93.970329,102.023972,157.247955,46.924717,128.475784,155.097351,-79.643974,205.616257,110.246643
483,0,126.799316,61.550377,131.038361,89.076683,97.418701,157.285934,42.674480,124.952873,154.830261,-82.503883,203.331451,109.101532
484,0,121.630325,56.812691,130.582809,84.415527,93.151253,156.820816,38.381393,121.441841,154.199905,-85.455002,201.184006,107.740158
485,0,116.642586,52.317963,129.667587,79.942062,89.131874,155.946304,34.199181,118.064949,153.255432,-88.431778,199.183990,106.285431
486,0,111.959114,48.190342,128.330643,75.516251,85.370941,154.743988,30.098345,114.645508,151.814621,-91.469536,197.559998,104.805801
487,0,107.154640,44.108162,126.615303,71.333336,81.828781,153.056427,26.224684,111.638786,150.113022,-94.135262,195.062698,102.726776
488,0,102.711227,40.241032,124.412598,67.217491,78.266495,151.039154,22.397377,108.707275,148.109024,-96.925339,193.423279,100.889236
489,0,98.313866,36.392467,121.815239,63.258774,74.773766,148.572128,18.707912,105.734200,145.686081,-99.779160,192.198242,99.060326
490,0,93.915314,32.540104,118.687836,59.475403,71.261078,145.719223,15.309587,102.747269,142.996307,-102.452621,190.813690,97.051346
491,0,89.694031,28.744484,114.985596,55.887817,67.719284,142.521271,12.186455,100.024529,140.148224,-105.343903,188.242783,94.721016
492,0,85.745392,25.222229,110.804810,52.580406,64.314629,139.018005,9.444525,97.464859,137.182449,-107.878227,186.682068,92.799583
493,0,82.343124,22.305523,106.190971,49.701946,61.295261,135.291870,7.020066,95.118927,134.184998,-109.879898,184.186340,90.558685
494,0,79.358200,20.080191,101.401405,47.369476,58.774902,131.419449,4.812099,93.002892,131.213760,-112.151711,182.866501,88.611015
495,0,76.985512,18.359913,96.717125,45.396404,56.795532,127.594460,2.861556,91.083199,128.218994,-114.170242,181.395660,86.584335
496,0,74.746613,17.059525,92.244659,43.721428,55.107601,123.908936,0.893529,89.340385,125.285553,-116.508797,181.162186,84.795998
497,0,72.920670,15.745550,88.252335,42.054073,53.595467,120.432877,-0.904892,87.683273,122.301323,-118.241264,179.774185,82.666145
498,0,71.055702,14.299130,84.550842,40.476837,52.170132,117.082230,-2.507970,86.237999,119.233482,-119.737923,178.526138,80.515030
499,0,69.281532,12.798712,80.942284,39.022575,50.784500,113.713158,-3.969362,84.970200,116.168663,-120.614075,176.475708,78.094604
500,0,67.476631,11.212610,77.248314,37.678482,49.368462,110.282364,-5.008978,83.805244,113.050362,-122.191147,176.561707,76.310654
501,0,65.798935,9.793609,73.389381,36.398643,48.010498,106.756821,-5.827607,82.782661,109.910843,-123.116188,175.647690,74.273590
502,0,64.544403,8.582336,69.363777,35.394573,46.685333,103.065041,-6.562963,81.752731,106.756599,-124.011703,175.336945,72.907181
503,0,63.585484,7.727918,65.216942,34.674095,45.506477,99.293983,-7.202304,80.527382,103.647942,-125.119865,173.979691,70.992569
504,0,62.941620,7.212720,60.988747,34.113552,44.529499,95.561081,-7.831352,79.261063,100.628998,-126.257805,173.770950,69.944603
505,0,62.566540,6.759797,57.029861,33.729015,43.642422,91.934433,-8.370996,78.079201,97.721657,-127.146614,172.240158,68.419586
506,0,62.215763,6.238245,53.470367,33.302402,42.805408,88.502693,-8.784437,76.986595,94.926529,-128.051254,172.008224,67.598145
507,0,61.731541,5.697262,50.177734,32.884571,42.017498,85.261665,-9.094355,75.988548,92.217232,-128.688583,170.523743,66.113594
508,0,61.508240,5.068727,47.258659,32.527077,41.256229,82.328423,-9.529157,74.972832,89.501114,-129.244293,170.398651,65.358551
509,0,60.749519,4.503290,44.137596,32.192436,40.582470,79.552933,-9.704134,74.184639,87.095222,-129.725494,169.206009,64.008926
510,0,60.481075,3.875952,41.495571,31.918932,40.077423,76.915352,-9.854532,73.494530,84.812462,-130.674347,169.384827,63.066101
511,0,59.883991,3.329358,38.754330,31.708103,39.569794,74.419785,-9.932377,73.041679,82.664352,-130.799713,168.927414,61.823853
512,0,59.429173,2.958544,36.107983,31.443951,39.135689,71.877228,-9.973336,72.692070,80.551765,-130.735718,167.105850,60.066357
513,0,59.131649,2.796522,33.364117,31.439077,38.885147,69.412926,-10.212339,72.605835,78.164291,-131.123978,168.058701,59.608631
514,0,59.038486,2.872777,30.443287,31.485636,38.744389,66.939796,-10.128765,72.284225,76.110535,-131.146698,166.461731,58.045395
515,0,58.983780,3.191633,27.368717,31.623125,38.707253,64.387749,-10.103792,71.790222,74.091789,-131.599869,167.236801,57.674229
516,0,59.040405,3.421761,24.823286,31.712008,38.666626,61.733158,-10.187674,71.215363,72.058075,-131.999603,166.827438,56.845737
517,0,59.452934,3.132273,24.616026,31.540871,39.171318,60.772705,-10.515867,70.768150,70.077026,-132.452545,166.407364,56.137360
518,0,59.582375,3.138727,24.554621,30.829576,39.566681,60.228077,-11.168025,70.397369,68.642677,-132.899368,166.133942,55.319603
519,0,59.248402,3.107835,24.531351,30.014994,39.457664,59.797279,-12.231490,69.970116,67.809395,-133.446213,166.048691,54.507114
520,0,58.581665,3.196702,24.564777,29.140495,39.415459,59.654388,-13.166368,70.183884,67.446274,-134.123932,166.045197,53.872829
521,0,58.305080,3.506163,24.682249,28.598198,39.668903,59.388760,-13.587719,70.547104,67.308655,-134.828552,166.084076,53.470669
522,0,58.155251,3.718252,24.769157,28.288784,40.036701,58.988335,-14.110674,70.722824,67.105125,-135.393280,166.198212,53.190865
523,0,57.833469,3.906174,24.782440,27.913979,40.219227,58.656319,-14.737685,70.584267,66.861740,-135.811050,166.232666,52.996830
524,0,57.705795,4.029400,24.886169,27.440208,40.259384,58.437641,-15.354584,70.477158,66.645691,-136.276993,166.254318,52.833420
525,0,57.260220,4.186286,24.847939,27.035879,40.253498,58.250523,-15.744383,70.439293,66.459518,-136.656738,166.159836,52.595428
526,0,57.298443,4.298618,24.951136,26.770416,40.358212,58.059875,-16.095173,70.469368,66.257942,-136.920609,166.068710,52.360565
527,0,57.276112,4.430225,24.935310,26.565741,40.528694,57.838825,-16.450127,70.457855,65.969933,-137.178741,165.912323,52.089603
528,0,57.272743,4.555392,24.984087,26.424995,40.678619,57.659531,-16.756889,70.495697,65.623528,-137.367691,165.798889,51.807217
529,0,57.277412,4.620986,24.962999,26.287992,40.805389,57.455849,-17.041100,70.536255,65.174644,-137.520828,165.708313,51.397995
530,0,57.304173,4.691792,24.956947,26.152447,40.922024,57.286049,-17.296301,70.581146,64.711731,-137.503189,165.619232,50.982559
531,0,57.348190,4.768222,24.964716,26.086887,41.101807,57.138016,-17.457258,70.662048,64.237442,-137.438538,165.617645,50.528908
532,0,57.405167,4.869362,24.984081,26.042210,41.397594,56.942505,-17.572878,70.843529,63.846352,-137.337112,165.616714,50.119854
533,0,57.421497,5.031970,24.991688,26.070120,41.684059,56.781872,-17.588512,71.104172,63.496239,-137.268341,165.778717,49.839050
534,0,57.402637,5.187706,24.986435,26.106770,41.990589,56.649364,-17.580965,71.383949,63.340954,-137.152100,166.019806,49.666798
535,0,57.385368,5.353076,25.025887,26.118849,42.247215,56.583893,-17.547781,71.630119,63.308949,-137.060379,166.216934,49.620777
536,0,57.148460,5.523959,24.982658,26.133942,42.409332,56.507774,-17.502756,71.830849,63.401299,-137.064117,166.484665,49.688858
537,0,57.173038,5.601659,25.052315,26.144444,42.491116,56.495995,-17.390192,72.070473,63.620186,-137.017960,166.776978,49.900368
538,0,57.023335,5.747399,25.017399,26.204927,42.642693,56.464016,-17.265772,72.281982,63.848019,-136.973022,167.050644,50.150402
539,0,56.945240,5.870793,25.027529,26.280857,42.761196,56.452217,-17.138758,72.457886,64.100983,-136.871872,167.286179,50.422947
540,0,56.956806,5.962413,25.038578,26.395197,42.842110,56.460052,-16.995605,72.573486,64.284348,-136.817505,167.448776,50.629971
541,0,57.039185,6.020947,25.084230,26.459003,42.900364,56.486347,-16.900827,72.652733,64.422447,-136.733688,167.623062,50.796116
542,0,56.963459,6.059622,25.067829,26.512741,42.907795,56.537956,-16.871845,72.679100,64.523453,-136.625534,167.705414,50.936432
543,0,56.987934,5.983143,25.123928,26.515415,42.864738,56.558342,-16.851145,72.588898,64.562820,-136.567810,167.779602,51.170406
544,0,56.900116,5.885512,25.186203,26.486816,42.794136,56.589420,-16.920712,72.475311,64.600311,-136.454636,167.798599,51.289513
545,0,56.822845,5.850182,25.182219,26.428740,42.714336,56.631340,-16.994648,72.292152,64.624092,-136.367477,167.709595,51.274334
546,0,56.807949,5.850213,25.194534,26.362000,42.609467,56.669895,-17.101534,72.183342,64.677696,-136.583893,168.193695,51.512814
547,0,56.794266,5.818589,25.204481,26.299683,42.533474,56.721516,-17.185474,72.078339,64.719971,-136.487320,168.038223,51.516293
548,0,56.706818,5.795983,25.204592,26.269323,42.472519,56.747868,-17.263456,72.023117,64.772850,-136.442184,167.956665,51.665127
549,0,56.740189,5.755970,25.206369,26.228127,42.400913,56.780823,-17.255285,71.960556,64.875305,-136.324097,167.999481,51.807648
550,0,56.706963,5.752474,25.239199,26.269588,42.373283,56.809498,-17.195974,71.957260,64.971382,-136.274673,168.018311,51.931507
551,0,56.790855,5.735480,25.249573,26.284180,42.377769,56.823246,-17.123484,71.960907,65.012604,-136.178192,168.100052,52.046181
552,0,56.855515,5.789246,25.196405,26.354347,42.378933,56.825550,-17.029467,71.998497,65.076805,-136.090942,168.166275,52.097961
553,0,56.869755,5.817706,25.123749,26.395752,42.417381,56.840866,-16.998890,72.017288,65.131783,-136.072342,168.218094,52.159664
554,0,56.907761,5.791839,25.117039,26.433094,42.429974,56.844208,-16.959427,72.053566,65.160866,-136.000839,168.285675,52.217373
555,0,56.849899,5.826459,25.137026,26.433371,42.415161,56.848217,-16.959164,72.053276,65.161018,-135.981659,168.307220,52.195431
556,0,56.829697,5.783010,25.206980,26.398300,42.413456,56.841892,-16.985231,72.032234,65.163788,-135.953751,168.316376,52.205978
557,0,56.800201,5.757233,25.243757,26.372965,42.372581,56.865688,-17.044994,71.969429,65.148682,-135.963394,168.337692,52.201633
558,0,56.738579,5.799931,25.226561,26.347778,42.407894,56.869553,-17.135059,71.952705,65.133400,-135.980972,168.293076,52.164650
559,0,56.690914,5.864693,25.212563,26.299631,42.456196,56.877342,-17.199099,71.940453,65.118423,-136.041336,168.333237,52.189697
560,0,56.653622,5.891912,25.262842,26.283056,42.496880,56.883423,-17.248510,71.945511,65.147911,-136.025940,168.364578,52.155930
561,0,56.617146,5.943895,25.160463,26.258644,42.584553,56.954277,-17.317137,71.970932,65.172668,-136.007538,168.392532,52.114052
562,0,56.529228,5.959282,25.136293,26.182793,42.635815,56.989250,-17.361252,72.075256,65.189445,-136.073502,168.410782,52.071220
563,0,56.551773,6.047448,25.056927,26.099617,42.656239,57.005398,-17.405046,72.190788,65.168037,-136.008163,168.481598,52.069897
564,0,56.509670,6.135287,25.083761,26.100922,42.784946,57.018509,-17.397697,72.289719,65.198532,-136.051071,168.525940,52.074070
565,0,56.489494,6.223338,25.061735,26.153072,42.915520,56.989632,-17.384098,72.412842,65.207893,-136.068512,168.629852,52.138050
566,0,56.481476,6.259963,25.060217,26.175665,43.000538,56.985203,-17.361137,72.533867,65.189201,-136.041092,168.708282,52.174049
567,0,56.474564,6.271799,25.069632,26.153057,43.072025,56.953617,-17.285667,72.632072,65.199326,-136.031326,168.771011,52.215130
568,0,56.463097,6.274310,25.085251,26.158308,43.112404,56.922054,-17.231726,72.723396,65.118721,-135.966873,168.841782,52.227669
569,0,56.567612,6.277194,25.125612,26.208929,43.143833,56.896545,-17.174288,72.821373,65.103523,-135.960495,168.880402,52.260334
570,0,56.487911,6.305994,25.064226,26.259706,43.167885,56.873940,-17.106731,72.871811,65.093163,-135.909912,168.931168,52.393883
571,0,56.520092,6.310221,25.062260,26.284737,43.187695,56.878860,-17.066540,72.941856,65.109955,-135.853302,168.957642,52.436687
572,0,56.497501,6.294296,25.058102,26.341799,43.170757,56.894806,-17.036114,72.905281,65.144676,-135.813843,168.981033,52.527405
573,0,56.520645,6.309636,25.062737,26.362452,43.166645,56.965981,-17.028864,72.897278,65.220772,-135.782425,168.944733,52.613407
574,0,56.513905,6.316090,25.088726,26.404976,43.139015,56.983212,-16.997149,72.839256,65.328598,-135.762894,168.894974,52.685734
575,0,56.509968,6.326496,25.111767,26.451666,43.152298,57.107368,-16.946259,72.813271,65.471794,-135.709244,168.900864,52.766609
576,0,56.526295,6.344962,25.141466,26.543926,43.127319,57.181877,-16.917028,72.837013,65.639763,-135.631485,168.870605,52.834877
577,0,56.537624,6.371150,25.131939,26.599274,43.147148,57.260761,-16.884176,72.826492,65.782913,-135.585434,168.817810,52.860493
578,0,56.522465,6.377371,25.075171,26.639071,43.132492,57.343658,-16.841660,72.825432,65.918129,-135.561768,168.803070,52.917530
579,0,56.495296,6.388100,25.058001,26.701046,43.142174,57.435913,-16.821678,72.780128,66.034340,-135.449600,168.801285,52.983906
580,0,56.426823,6.340380,25.078892,26.715700,43.090710,57.511349,-16.792980,72.773811,66.147881,-135.437134,168.767044,52.994446
581,0,56.453922,6.349052,25.072966,26.766285,43.072674,57.543274,-16.743601,72.786987,66.222633,-135.421341,168.792923,53.019913
582,0,56.509090,6.367788,25.068518,26.816710,43.111649,57.528671,-16.733988,72.822105,66.196739,-135.422806,168.798462,53.024132
583,0,56.529972,6.367949,25.075224,26.825068,43.099812,57.538033,-16.715666,72.805367,66.200745,-135.330368,168.821457,53.006393
584,0,56.629883,6.360574,25.115095,26.808620,43.068325,57.550079,-16.713348,72.826904,66.187241,-135.297455,168.836639,53.008457
585,0,56.527481,6.354939,25.058437,26.791409,43.062901,57.554600,-16.717920,72.850471,66.145340,-135.287674,168.871094,52.997822
586,0,56.539654,6.374445,25.075310,26.790857,43.113289,57.478210,-16.757441,72.891113,66.107910,-135.287537,168.880981,52.939735
587,0,56.535820,6.369477,25.057037,26.814011,43.159554,57.469265,-16.724421,72.928307,66.024109,-135.282883,168.903992,52.885468
588,0,56.619701,6.394011,25.103867,26.810766,43.239246,57.419441,-16.709524,73.013969,65.963722,-135.276260,168.909302,52.828079
589,0,56.506401,6.452434,25.068213,26.811041,43.295670,57.393951,-16.682053,73.057007,65.939445,-135.287720,168.979675,52.801601
590,0,56.590576,6.443974,25.100559,26.864002,43.357834,57.324463,-16.685921,73.162163,65.851166,-135.297638,169.040817,52.785049
591,0,56.638649,6.501955,25.101383,26.886248,43.438099,57.292492,-16.645748,73.231888,65.809074,-135.241165,169.092697,52.738907
592,0,56.642216,6.497885,25.111269,26.917797,43.507431,57.275829,-16.607563,73.288940,65.769882,-135.254379,169.100296,52.703358
593,0,56.564510,6.541048,25.097477,26.916151,43.550259,57.247066,-16.593117,73.340439,65.711815,-135.277222,169.124802,52.654156
594,0,56.558628,6.555036,25.067373,26.940144,43.579239,57.241650,-16.608929,73.351128,65.663437,-135.299072,169.108871,52.581264
595,0,56.523888,6.578448,25.110312,26.904585,43.610394,57.202370,-16.671354,73.389450,65.613136,-135.372726,169.109665,52.527897
596,0,56.517982,6.587635,25.148935,26.881433,43.627628,57.240303,-16.702656,73.399971,65.610451,-135.386856,169.157547,52.525341
597,0,56.519390,6.600915,25.157682,26.836721,43.603897,57.259289,-16.710743,73.424660,65.671165,-135.401733,169.152313,52.472519
598,0,56.521919,6.600386,25.153084,26.825958,43.592739,57.243660,-16.756575,73.393257,65.632385,-135.439697,169.158966,52.434532
599,0,56.478210,6.573029,25.140142,26.786009,43.554333,57.207226,-16.779655,73.339783,65.604553,-135.410019,169.103943,52.370930
600,0,56.478897,6.557280,25.147955,26.795952,43.497646,57.269192,-16.799843,73.306038,65.646484,-135.409302,169.090073,52.352219
601,0,56.461254,6.560435,25.146826,26.798555,43.454697,57.292015,-16.815861,73.296822,65.675034,-135.387283,169.064545,52.347336
602,0,56.465515,6.530366,25.142857,26.780174,43.448887,57.263866,-16.828415,73.271606,65.681953,-135.383530,169.109787,52.342316
603,0,56.449326,6.487547,25.171579,26.772505,43.399437,57.312733,-16.826458,73.216209,65.698662,-135.299988,169.103226,52.347607
604,0,56.457527,6.494652,25.152306,26.704454,43.364269,57.322414,-16.858625,73.202637,65.736862,-135.306854,169.110840,52.344894
605,0,56.437820,6.483904,25.154251,26.713972,43.377880,57.308491,-16.838215,73.189133,65.754974,-135.301682,169.119736,52.363659
606,0,56.533966,6.435685,25.174257,26.699539,43.318462,57.311195,-16.868917,73.156815,65.770363,-135.295425,169.131378,52.406357
607,0,56.434631,6.447496,25.140106,26.682936,43.285290,57.332188,-16.922775,73.120102,65.782967,-135.268356,169.175659,52.455616
608,0,56.430283,6.428468,25.137220,26.660851,43.276009,57.346287,-16.903522,73.088295,65.813538,-135.252808,169.207169,52.481369
609,0,56.429855,6.448316,25.138752,26.666578,43.288635,57.333416,-16.887798,73.121712,65.834335,-135.228180,169.268982,52.512642
610,0,56.432102,6.446251,25.139679,26.702387,43.304504,57.352306,-16.861494,73.118896,65.862808,-135.205383,169.281830,52.547852
611,0,56.438538,6.476670,25.137163,26.724304,43.314518,57.369766,-16.840256,73.165672,65.914513,-135.135742,169.344666,52.574574
612,0,56.468399,6.459579,25.148277,26.751713,43.319767,57.357624,-16.785421,73.159958,65.939384,-135.109833,169.385559,52.564632
613,0,56.432064,6.446614,25.164881,26.740526,43.308788,57.363903,-16.780020,73.136833,65.957062,-135.087357,169.423019,52.614525
614,0,56.533989,6.414321,25.236036,26.737953,43.292202,57.389439,-16.787310,73.123604,65.980225,-135.071747,169.450180,52.637562
615,0,56.421036,6.411627,25.216284,26.719563,43.240181,57.400871,-16.781963,73.095840,66.009949,-135.041199,169.433762,52.649590
616,0,56.440819,6.385030,25.195988,26.748863,43.185856,57.417980,-16.801531,73.053047,66.040375,-134.985611,169.510651,52.684471
617,0,56.478821,6.336920,25.166866,26.691078,43.125237,57.403156,-16.821619,72.991516,66.030365,-134.986526,169.485794,52.677540
618,0,56.454273,6.267573,25.179625,26.677923,43.086830,57.420998,-16.828337,72.967705,66.042114,-134.976639,169.478088,52.656097
619,0,56.436951,6.267522,25.172369,26.665394,43.039803,57.430279,-16.884075,72.918213,66.038635,-134.990295,169.496338,52.658703
620,0,56.409714,6.279402,25.156660,26.682909,43.013420,57.458164,-16.921629,72.885979,66.043571,-134.987869,169.474091,52.652794
621,0,56.410286,6.273910,25.141029,26.589569,42.983906,57.437489,-16.947161,72.840523,66.069595,-135.039383,169.478806,52.633408
622,0,56.373016,6.284366,25.143105,26.582348,42.969265,57.446430,-16.987062,72.801437,66.075966,-135.070755,169.467010,52.648327
623,0,56.323456,6.256605,25.158693,26.550575,42.960182,57.449295,-17.057268,72.815575,66.138680,-135.132263,169.455948,52.619289
624,0,56.307972,6.247956,25.131289,26.466665,42.935085,57.427906,-17.087332,72.769455,66.161392,-135.207397,169.495819,52.606613
625,0,56.268955,6.291209,25.121828,26.421658,42.941147,57.396603,-17.160275,72.743698,66.130577,-135.246384,169.469742,52.625690
626,0,56.255196,6.307433,25.102018,26.392164,42.962643,57.400021,-17.214289,72.740944,66.138939,-135.291595,169.444244,52.546009
627,0,56.231575,6.312542,25.133402,26.363295,43.006161,57.415573,-17.216972,72.745323,66.127151,-135.366455,169.482910,52.523449
628,0,56.223942,6.293855,25.158253,26.338392,43.027641,57.331512,-17.243019,72.799164,66.078583,-135.374512,169.480026,52.450439
629,0,56.241474,6.274534,25.145508,26.322683,43.029675,57.295170,-17.281143,72.770309,66.015930,-135.392273,169.466141,52.372692
630,0,56.291309,6.268721,25.189531,26.322830,43.078083,57.262257,-17.231335,72.812157,65.963791,-135.364853,169.472733,52.283257
631,0,56.315331,6.253302,25.188335,26.343357,43.119411,57.225910,-17.231157,72.795860,65.907776,-135.415756,169.467667,52.218327
632,0,56.314224,6.253135,25.187790,26.364008,43.138451,57.171452,-17.217197,72.812263,65.871376,-135.426682,169.438507,52.141388
633,0,56.332829,6.261463,25.199089,26.346565,43.154369,57.167519,-17.241663,72.814507,65.836052,-135.464523,169.439133,52.100441
634,0,56.342865,6.274622,25.230703,26.324518,43.189186,57.181767,-17.267748,72.871552,65.830322,-135.445999,169.443649,52.104362
635,0,56.313450,6.279005,25.251024,26.323738,43.199905,57.166264,-17.307064,72.859192,65.797592,-135.536072,169.435059,52.078918
636,0,56.341282,6.342634,25.244581,26.320726,43.212807,57.170193,-17.303152,72.890411,65.824364,-135.592224,169.470795,52.071014
637,0,56.305176,6.314868,25.250866,26.303919,43.228184,57.182896,-17.310661,72.878105,65.858429,-135.646149,169.480301,52.115692
638,0,56.284748,6.329463,25.258112,26.255020,43.217712,57.215450,-17.353952,72.826248,65.900024,-135.673035,169.500381,52.155819
639,0,56.277203,6.291353,25.246399,26.278204,43.150665,57.197685,-17.369362,72.800301,65.934097,-135.714844,169.448990,52.164520
640,0,56.269413,6.267140,25.272869,26.247089,43.163509,57.219902,-17.402996,72.776848,65.979042,-135.735153,169.454620,52.184288
641,0,56.266666,6.268884,25.272364,26.227581,43.112221,57.248707,-17.395004,72.705421,66.020844,-135.769043,169.489502,52.233105
642,0,56.271450,6.247981,25.265070,26.219675,43.067406,57.291260,-17.402409,72.645058,66.078018,-135.761719,169.454407,52.249611
643,0,56.289394,6.245978,25.263853,26.266661,43.045746,57.329967,-17.397764,72.652100,66.116257,-135.756912,169.467300,52.273911
644,0,56.369015,6.265468,25.309126,26.277943,43.057518,57.334106,-17.400475,72.623413,66.139641,-135.731400,169.456131,52.247646
645,0,56.376457,6.265067,25.316416,26.327589,43.057926,57.343231,-17.386808,72.636162,66.152000,-135.739944,169.461136,52.239128
646,0,56.382072,6.250806,25.313087,26.318872,43.067444,57.331005,-17.371515,72.650414,66.154816,-135.739319,169.416092,52.174805
647,0,56.424667,6.269132,25.321396,26.316122,43.080330,57.317509,-17.372583,72.643166,66.116028,-135.755173,169.414703,52.099369
648,0,56.440533,6.266006,25.334246,26.349682,43.108395,57.323116,-17.350466,72.691795,66.096916,-135.750885,169.454437,52.052666
649,0,56.445423,6.252222,25.331085,26.399353,43.145210,57.309837,-17.310627,72.684563,66.067337,-135.722137,169.458771,52.008934
650,0,56.471531,6.297003,25.342505,26.395124,43.193623,57.288254,-17.298523,72.776917,66.053413,-135.809189,169.534378,52.089874
651,0,56.477642,6.300116,25.343828,26.388535,43.245338,57.275864,-17.303885,72.806396,66.015167,-135.863022,169.535233,52.016632
652,0,56.474880,6.322451,25.346991,26.403349,43.278152,57.249107,-17.287214,72.822678,65.993599,-135.862930,169.581329,51.973061
653,0,56.474155,6.313626,25.352091,26.409973,43.310005,57.249279,-17.299110,72.861778,65.976074,-135.880768,169.569672,51.974651
654,0,56.472240,6.326006,25.348557,26.384209,43.318100,57.224285,-17.304953,72.866066,65.966515,-135.911240,169.555069,51.922718
655,0,56.482006,6.341741,25.358572,26.397251,43.327637,57.203617,-17.362381,72.856697,65.922089,-135.979187,169.552750,51.858864
656,0,56.462173,6.339139,25.341522,26.310757,43.380394,57.183414,-17.400520,72.874763,65.909225,-135.966583,169.452469,51.712887
657,0,56.434937,6.340614,25.352520,26.302551,43.380196,57.134926,-17.464231,72.864876,65.863564,-135.862442,169.180084,51.617867
658,0,56.428810,6.356704,25.374882,26.296074,43.358192,57.138523,-17.473112,72.865051,65.849205,-135.987564,169.386551,51.612808
659,0,56.458744,6.358270,25.374895,26.271461,43.362465,57.137516,-17.483309,72.862350,65.800194,-136.012070,169.392273,51.540283
660,0,56.441818,6.373811,25.380436,26.255768,43.378326,57.118282,-17.519066,72.873245,65.786819,-136.147812,169.403748,51.518467
661,0,56.448692,6.373893,25.387712,26.258789,43.376907,57.109303,-17.514851,72.882294,65.757912,-136.106400,169.330276,51.387474
662,0,56.442970,6.360401,25.420498,26.253256,43.410110,57.092182,-17.540169,72.881004,65.740166,-136.103134,169.337708,51.364437
663,0,56.440102,6.374068,25.403515,26.289412,43.429478,57.094494,-17.533230,72.909470,65.755562,-136.155243,169.348831,51.315819
664,0,56.467930,6.346575,25.423983,26.287458,43.445225,57.088123,-17.518511,72.918571,65.735695,-136.160233,169.372070,51.320072
665,0,56.471001,6.360617,25.432745,26.286467,43.445324,57.090416,-17.534868,72.908897,65.741196,-136.183304,169.361588,51.308823
666,0,56.462166,6.372424,25.433147,26.269716,43.449707,57.093258,-17.545038,72.898476,65.746231,-136.282059,169.385849,51.296795
667,0,56.450962,6.362043,25.432995,26.266134,43.424068,57.097832,-17.581503,72.856110,65.775429,-136.040726,168.983749,51.098236
668,0,56.472340,6.359116,25.432289,26.228012,43.433197,57.095497,-17.581928,72.856339,65.775589,-136.087204,168.983093,51.099632
669,0,56.475552,6.360333,25.440611,26.207092,43.444675,57.087639,-17.593039,72.832664,65.752136,-136.085907,168.966293,51.066742
670,0,56.469292,6.358869,25.411007,26.255390,43.468082,57.103931,-17.628317,72.895027,65.723839,-136.162125,168.989273,50.983788
671,0,56.478916,6.375724,25.432192,26.264290,43.470829,57.082409,-17.598112,72.890640,65.678711,-136.416962,169.376770,51.071579
672,0,56.485195,6.373811,25.462574,26.265760,43.538486,57.058990,-17.606750,72.931839,65.653137,-136.185959,168.955841,50.855942
673,0,56.484924,6.386925,25.446737,26.286211,43.577606,57.011356,-17.596529,72.969841,65.595291,-136.174057,168.939163,50.753342
674,0,56.532566,6.405898,25.433466,26.260023,43.604218,56.989517,-17.616255,73.000198,65.555687,-136.192169,168.942032,50.669796
675,0,56.538193,6.407134,25.437944,26.245684,43.619095,56.976795,-17.615660,72.990494,65.520874,-136.239655,168.918686,50.594936
676,0,56.502254,6.418706,25.455395,26.212288,43.624924,56.950676,-17.635300,73.010284,65.509026,-136.227936,168.870544,50.547157
677,0,56.497528,6.436261,25.439997,26.194397,43.620167,56.969318,-17.698206,73.006615,65.495850,-136.354904,168.870651,50.512966
678,0,56.459167,6.442722,25.438137,26.182716,43.608284,56.961845,-17.727341,72.986526,65.489754,-136.354675,168.834229,50.443077
679,0,56.466881,6.437542,25.459244,26.182533,43.608620,56.962891,-17.734997,72.985214,65.476242,-136.406464,168.786896,50.428730
680,0,56.461548,6.441340,25.488802,26.178915,43.624668,56.960789,-17.748289,73.016258,65.457779,-136.462158,168.807083,50.382900
681,0,56.468407,6.450923,25.473557,26.133303,43.669910,56.947250,-17.809914,73.010162,65.458023,-136.510727,168.782043,50.361279
682,0,56.466824,6.471475,25.486921,26.120577,43.691826,56.933807,-17.817734,73.008926,65.462769,-136.522705,168.755432,50.358162
683,0,56.465672,6.467431,25.485840,26.108170,43.690510,56.925468,-17.831127,73.044388,65.465523,-136.635147,168.709030,50.337917
684,0,56.440765,6.494285,25.497101,26.091589,43.699390,56.923901,-17.839022,73.015945,65.489029,-136.660233,168.738861,50.333786
685,0,56.424999,6.486850,25.519194,26.060270,43.644356,56.929916,-17.873602,72.984024,65.505554,-136.696579,168.683533,50.350956
686,0,56.411331,6.485881,25.538431,26.032495,43.623569,56.980213,-17.917521,72.940109,65.542603,-136.723343,168.642822,50.371174
687,0,56.392483,6.472371,25.518751,26.026340,43.590660,57.014469,-17.932560,72.891029,65.549034,-136.741959,168.559937,50.315544
688,0,56.412766,6.454654,25.539389,26.037430,43.569000,57.003231,-17.938675,72.861504,65.592583,-136.753754,168.537094,50.342690
689,0,56.420677,6.457950,25.497311,26.034174,43.557922,57.039230,-17.941502,72.864899,65.586647,-136.830612,168.504929,50.306900
690,0,56.416130,6.451758,25.505314,26.025358,43.546307,57.048000,-17.946966,72.864845,65.592422,-136.839569,168.476044,50.301506
691,0,56.424404,6.442899,25.500513,26.024065,43.544441,57.048622,-17.969646,72.850861,65.586060,-136.863647,168.500427,50.294640
692,0,56.417492,6.442646,25.507168,26.024622,43.533684,57.032520,-17.988705,72.850517,65.559319,-136.859756,168.432663,50.257011
693,0,56.403229,6.470815,25.504900,26.024717,43.542118,57.000355,-17.988012,72.861061,65.554398,-136.894440,168.498749,50.230160
694,0,56.380836,6.472556,25.506248,26.008875,43.591389,57.001606,-18.045818,72.898033,65.521393,-136.908936,168.485565,50.231895
695,0,56.411427,6.503945,25.500141,26.005602,43.602036,56.982544,-18.216345,73.103577,65.447853,-136.913818,168.501770,50.173813
696,0,56.401508,6.513987,25.494064,26.032442,43.611565,56.964844,-17.901707,72.846405,65.496887,-136.882462,168.492691,50.170841
697,0,56.398586,6.531306,25.489798,26.035530,43.609318,56.959541,-17.913023,72.832741,65.491470,-136.894043,168.482574,50.136440
698,0,56.391651,6.529530,25.483576,26.019377,43.624798,56.946518,-17.915649,72.852890,65.495819,-136.900085,168.480972,50.120663
699,0,56.472214,6.556772,25.525661,26.019218,43.626324,56.946518,-17.921848,72.862785,65.479057,-136.892395,168.454514,50.070045
700,0,56.405762,6.548328,25.487972,26.024771,43.614311,56.955936,-17.916758,72.853073,65.495552,-136.881134,168.432510,50.038326
701,0,56.392498,6.535372,25.478355,26.027676,43.615944,56.958981,-17.918690,72.854614,65.504631,-136.881607,168.427658,50.044983
702,0,56.370014,6.535434,25.474121,26.020060,43.593185,56.992294,-17.921619,72.813423,65.543602,-136.886124,168.397659,50.008373
703,0,56.388935,6.499517,25.462051,26.018742,43.558193,57.030788,-17.935780,72.761147,65.557480,-136.856857,168.406067,50.000168
704,0,56.389179,6.478350,25.507288,25.986908,43.523098,57.021969,-17.957661,72.741211,65.570503,-136.885422,168.372253,50.003742
705,0,56.378819,6.484578,25.483131,26.016371,43.523739,57.055038,-17.953625,72.708893,65.582825,-136.877182,168.332260,49.972630
706,0,56.394970,6.473325,25.466600,25.973621,43.489155,57.050785,-17.956882,72.709091,65.587944,-136.907104,168.290894,49.920120
707,0,56.401073,6.469261,25.482660,25.966667,43.473469,57.036518,-18.011089,72.669418,65.567101,-136.910782,168.284210,49.900726
708,0,56.390167,6.484530,25.449884,25.984098,43.457012,57.052162,-18.014093,72.669098,65.586502,-136.925446,168.231918,49.894207
709,0,56.379295,6.497964,25.459953,25.966867,43.473698,57.058826,-18.002325,72.639412,65.595245,-136.968689,168.204224,49.888508
710,0,56.379467,6.497394,25.463446,25.931570,43.473782,57.053600,-18.061680,72.627419,65.650764,-137.015884,168.140137,49.894299
711,0,56.343479,6.524038,25.476494,25.931131,43.467007,57.050514,-18.068941,72.615822,65.677475,-137.104736,168.148819,49.906311
712,0,56.336643,6.559576,25.477758,25.933249,43.499203,57.049458,-18.091492,72.644745,65.685768,-137.163040,168.142212,49.955566
713,0,56.360348,6.585976,25.487850,25.987955,43.530056,57.069683,-18.084002,72.629387,65.725616,-137.220062,168.073151,49.916199
714,0,56.350697,6.617813,25.482384,25.989473,43.548794,57.067039,-18.081144,72.624557,65.744072,-137.294296,168.075745,49.905510
715,0,56.354225,6.634539,25.485615,26.017689,43.572495,57.045212,-18.089523,72.645309,65.754967,-137.295822,168.050064,49.871368
716,0,56.320995,6.666766,25.478329,25.997181,43.614040,57.006638,-18.101891,72.647614,65.737732,-137.321884,168.015060,49.841740
717,0,56.335949,6.679464,25.496523,26.028177,43.602978,57.030766,-18.122841,72.676277,65.740906,-137.340057,167.959961,49.835556
718,0,56.305138,6.706504,25.502886,25.931463,43.665092,56.998699,-18.178003,72.643341,65.790573,-137.390594,167.930786,49.813499
719,0,56.265114,6.745525,25.528131,25.906410,43.625904,57.006481,-18.262245,72.640579,65.772324,-137.528915,167.943359,49.796677
720,0,56.242901,6.776527,25.520899,25.878540,43.636818,56.961578,-18.318378,72.674484,65.703575,-137.641022,167.940613,49.753365
721,0,56.205738,6.789097,25.546904,25.826250,43.691231,56.937618,-18.345192,72.698181,65.683945,-137.671524,167.916870,49.716496
722,0,56.193718,6.817019,25.551352,25.785969,43.701645,56.896965,-18.412310,72.729088,65.637260,-137.713348,167.909393,49.684441
723,0,56.184391,6.842964,25.551142,25.722914,43.748199,56.896595,-18.434847,72.738960,65.598602,-137.803680,167.902908,49.659363
724,0,56.116383,6.891057,25.564278,25.687456,43.777431,56.870731,-18.500614,72.816933,65.549088,-137.887222,167.919189,49.645271
725,0,56.115902,6.952488,25.563425,25.626757,43.868767,56.842506,-18.512135,72.849419,65.526489,-137.935181,167.949326,49.691109
726,0,56.090870,7.014729,25.597282,25.626287,43.916061,56.811546,-18.569353,72.897514,65.527405,-138.037689,167.987762,49.658375
727,0,55.952068,7.016384,25.505726,25.547413,43.987213,56.809597,-18.613935,72.924690,65.570915,-138.020493,168.005249,49.635445
728,0,55.828465,7.033314,25.499294,25.460331,43.959377,56.829269,-18.666254,73.010506,65.621384,-138.097900,168.079941,49.637905
729,0,55.760128,7.028781,25.528152,25.402388,43.978245,56.888901,-18.740602,73.072189,65.620323,-138.203796,168.193893,49.685974
730,0,55.725842,7.074156,25.524981,25.322683,44.059662,56.902004,-18.792215,73.138283,65.661514,-138.286316,168.243896,49.697014
731,0,55.626999,7.139688,25.528521,25.300365,44.084042,56.903515,-18.873638,73.191544,65.685898,-138.339066,168.273193,49.713669
732,0,55.568180,7.115444,25.518389,25.212217,44.094296,56.934891,-18.884029,73.220413,65.712646,-138.373703,168.333298,49.673298
733,0,55.549110,7.171522,25.531517,25.181293,44.103374,56.928547,-18.942558,73.238045,65.692970,-138.392258,168.331177,49.661362
734,0,55.516384,7.183834,25.539158,25.177502,44.124001,56.900764,-18.991529,73.280258,65.678833,-138.424576,168.390503,49.642754
735,0,55.602993,7.187513,25.551411,25.176767,44.173092,56.876034,-18.995899,73.301865,65.629997,-138.428680,168.413498,49.646282
736,0,55.520931,7.197326,25.525024,25.174288,44.185070,56.839794,-18.973173,73.327171,65.604546,-138.471283,168.389847,49.567825
737,0,55.515373,7.166936,25.539667,25.169727,44.200958,56.837875,-18.971617,73.326317,65.603172,-138.443176,168.375504,49.583870
738,0,55.520893,7.185039,25.541904,25.170765,44.201733,56.837265,-18.957335,73.339249,65.607910,-138.461914,168.383453,49.560177
739,0,55.523453,7.216825,25.511438,25.193260,44.234627,56.830452,-18.951683,73.373077,65.601402,-138.465820,168.380280,49.556980
740,0,55.518276,7.229377,25.549421,25.177578,44.246422,56.832806,-18.952524,73.381378,65.584938,-138.478119,168.403076,49.595493
741,0,55.515770,7.225120,25.552832,25.188593,44.252609,56.829342,-18.950645,73.356621,65.609001,-138.473572,168.398880,49.590008
742,0,55.516289,7.213616,25.534632,25.216955,44.230000,56.848701,-18.947676,73.351784,65.621536,-138.508148,168.360458,49.585598
743,0,55.554710,7.201216,25.536310,25.213039,44.218155,56.851406,-18.928368,73.318199,65.635193,-138.527786,168.354477,49.607853
744,0,55.538734,7.183441,25.560774,25.220539,44.167683,56.886906,-18.917122,73.286697,65.705917,-138.526169,168.334213,49.608856
745,0,55.554844,7.201040,25.542452,25.209309,44.152782,56.905022,-18.923651,73.291489,65.719040,-138.556274,168.318176,49.665398
746,0,55.540955,7.184413,25.541279,25.205980,44.141041,56.921787,-18.924154,73.277138,65.729843,-138.555496,168.293594,49.661636
747,0,55.537365,7.181840,25.543451,25.206749,44.139225,56.922768,-18.968296,73.251411,65.741814,-138.580978,168.257660,49.624992
748,0,55.540890,7.184904,25.540209,25.213175,44.160622,56.900078,-18.920193,73.207458,65.735977,-138.532440,168.214874,49.605934
749,0,55.553410,7.201075,25.533613,25.222254,44.141136,56.924721,-18.893677,73.218170,65.736244,-138.582260,168.250671,49.614662
750,0,55.547989,7.197239,25.537294,25.221495,44.178993,56.914673,-18.894518,73.231857,65.689659,-138.584244,168.247406,49.610245
751,0,55.545517,7.211583,25.534544,25.225330,44.219593,56.857651,-18.932301,73.282303,65.662186,-138.592804,168.246124,49.596195
752,0,55.524860,7.200858,25.542976,25.261320,44.261055,56.849266,-18.923460,73.332611,65.611732,-138.581879,168.254730,49.524876
753,0,55.529819,7.209580,25.562744,25.264938,44.282665,56.846100,-18.907955,73.337059,65.610649,-138.619965,168.283524,49.535309
754,0,55.536736,7.214814,25.564137,25.226868,44.303730,56.824806,-18.923250,73.370567,65.587730,-138.614838,168.286560,49.491806
755,0,55.497429,7.273273,25.533796,25.169785,44.351513,56.805542,-18.953020,73.375992,65.585587,-138.630020,168.291519,49.494934
756,0,55.491707,7.294559,25.569448,25.173697,44.338322,56.817928,-18.958805,73.372498,65.575745,-138.683746,168.290909,49.509384
757,0,55.481781,7.293393,25.590118,25.170256,44.340378,56.822174,-18.960083,73.356247,65.605766,-138.686447,168.295624,49.516808
758,0,55.457268,7.295735,25.589785,25.171005,44.339893,56.823147,-18.959389,73.355797,65.606102,-138.680969,168.296143,49.513790
759,0,55.442230,7.298723,25.576155,25.148691,44.329411,56.821377,-19.023485,73.365433,65.606796,-138.694443,168.291855,49.489697
760,0,55.440121,7.295650,25.577999,25.129164,44.332516,56.815498,-19.028519,73.344833,65.586014,-138.683914,168.297699,49.545425
761,0,55.438320,7.275161,25.576233,25.133251,44.313503,56.830067,-19.028982,73.344604,65.585869,-138.675430,168.301117,49.531345
762,0,55.465019,7.278940,25.578720,25.128464,44.321674,56.827606,-19.002565,73.337349,65.603882,-138.685898,168.320465,49.515999
763,0,55.454807,7.287830,25.560856,25.140373,44.326683,56.821804,-18.997322,73.344620,65.555527,-138.640305,168.312759,49.514149
764,0,55.463814,7.281012,25.578768,25.176073,44.393539,56.800179,-18.967743,73.375092,65.522789,-138.605728,168.307892,49.436031
765,0,55.484299,7.282228,25.571444,25.179531,44.407448,56.799004,-18.951317,73.418388,65.502357,-138.615982,168.320709,49.440292
766,0,55.471035,7.323920,25.558182,25.203123,44.454453,56.771381,-18.944477,73.462494,65.474503,-138.632812,168.380066,49.391273
767,0,55.515400,7.341472,25.559263,25.228195,44.511620,56.717209,-18.909842,73.530701,65.439262,-138.584122,168.394455,49.355495
768,0,55.533352,7.335697,25.540083,25.241972,44.542076,56.675503,-18.935356,73.563751,65.354713,-138.583923,168.406540,49.319534
769,0,55.507904,7.351867,25.551416,25.252632,44.569317,56.661915,-18.873661,73.610542,65.351959,-138.572479,168.420090,49.343460
770,0,55.516499,7.367932,25.539270,25.245676,44.624077,56.650429,-18.874296,73.635078,65.322975,-138.574295,168.441986,49.344994
771,0,55.541683,7.397007,25.556841,25.281469,44.655285,56.618320,-18.873049,73.684143,65.312340,-138.587906,168.491669,49.316727
772,0,55.524193,7.409702,25.552521,25.286516,44.715969,56.578300,-18.860857,73.735588,65.241837,-138.570770,168.497223,49.294922
773,0,55.509991,7.408131,25.566021,25.284126,44.733479,56.575195,-18.874769,73.727463,65.209862,-138.663986,168.551025,49.303535
774,0,55.487446,7.423522,25.567636,25.263809,44.737514,56.574287,-18.878721,73.747345,65.195526,-138.648834,168.534912,49.229645
775,0,55.466927,7.439434,25.572647,25.230463,44.793350,56.553009,-18.942549,73.816490,65.165222,-138.693588,168.512817,49.214596
776,0,55.470257,7.443246,25.576756,25.215792,44.828041,56.524738,-18.938299,73.798927,65.106544,-138.716629,168.498108,49.148041
777,0,55.524986,7.458335,25.562519,25.226555,44.837765,56.470165,-18.946169,73.859810,65.075829,-138.672592,168.541504,49.083191
778,0,55.483688,7.471972,25.567795,25.195427,44.850109,56.474606,-18.972120,73.856422,65.056381,-138.700638,168.593918,49.053921
779,0,55.469437,7.479846,25.570290,25.179155,44.834660,56.483734,-18.989290,73.834023,65.036911,-138.725677,168.595947,49.014217
780,0,55.458385,7.462933,25.585463,25.138309,44.767956,56.515224,-18.987095,73.816391,65.058014,-138.732269,168.547440,48.965649
781,0,55.450165,7.434908,25.591156,25.130220,44.743900,56.502678,-19.038404,73.768661,65.100960,-138.749557,168.488205,48.924419
782,0,55.460644,7.428434,25.586090,25.128174,44.700283,56.521423,-19.053499,73.732903,65.101677,-138.757568,168.472092,48.914822
783,0,55.418797,7.392013,25.596302,25.119066,44.691719,56.534355,-19.073299,73.673904,65.133896,-138.748535,168.447006,48.935669
784,0,55.423973,7.391508,25.595997,25.083689,44.650978,56.570415,-19.057486,73.664345,65.161583,-138.749634,168.380798,48.904999
785,0,55.408752,7.381701,25.597546,25.040352,44.637100,56.573727,-19.118944,73.634109,65.180939,-138.821045,168.356018,48.942757
786,0,55.424114,7.363839,25.602547,25.033619,44.580372,56.612259,-19.122190,73.570740,65.225304,-138.831757,168.296616,48.965145
787,0,55.450905,7.334800,25.612087,25.051014,44.558296,56.615540,-19.143372,73.489311,65.265816,-138.842728,168.237503,48.982883
788,0,55.453320,7.328040,25.624073,25.076115,44.536743,56.635571,-19.143311,73.478958,65.283211,-138.899048,168.210800,48.984417
789,0,55.449127,7.338587,25.610046,25.072029,44.530392,56.631435,-19.133289,73.477608,65.311287,-138.910202,168.163956,48.941566
790,0,55.459797,7.333866,25.592287,25.066294,44.522640,56.647011,-19.150913,73.477219,65.305557,-138.895737,168.162445,48.922794
791,0,55.466248,7.339200,25.607533,25.077312,44.547714,56.645527,-19.146992,73.478722,65.288490,-138.934265,168.140366,48.902092
792,0,55.486546,7.357446,25.618870,25.083864,44.552402,56.635963,-19.143631,73.478226,65.282791,-138.917206,168.121231,48.894604
793,0,55.501446,7.368364,25.610186,25.084332,44.596680,56.609093,-19.130749,73.544281,65.245277,-138.904846,168.154510,48.931458
794,0,55.531239,7.364501,25.589767,25.116699,44.670403,56.581566,-19.091702,73.580078,65.234245,-138.905746,168.152557,48.900928
795,0,55.513874,7.369058,25.616983,25.121025,44.697018,56.572521,-19.097816,73.618210,65.211838,-138.908371,168.207504,48.882851
796,0,55.516743,7.373199,25.619770,25.128771,44.712761,56.572521,-19.098461,73.621140,65.194832,-138.892029,168.227692,48.865520
797,0,55.515133,7.375619,25.618273,25.120958,44.734142,56.563587,-19.086479,73.643517,65.206787,-138.859909,168.247391,48.853649
798,0,55.520519,7.368816,25.636797,25.157589,44.739693,56.579487,-19.082314,73.654877,65.204933,-138.913589,168.288849,48.851280
799,0,55.519821,7.380009,25.634192,25.161930,44.743023,56.548389,-19.079409,73.654037,65.200027,-138.849503,168.258453,48.801273
800,0,55.582485,7.379316,25.634857,25.160456,44.740799,56.542519,-19.080988,73.660324,65.173203,-138.889267,168.303116,48.828037
801,0,55.522167,7.381722,25.641094,25.168678,44.741772,56.541416,-19.066616,73.659706,65.199120,-138.888428,168.283356,48.829140
802,0,55.513950,7.374631,25.668110,25.143444,44.731659,56.563408,-19.096828,73.670151,65.184685,-138.877945,168.316132,48.863522
803,0,55.519993,7.367304,25.622713,25.147266,44.725956,56.571278,-19.102253,73.637016,65.193665,-138.880417,168.269974,48.831528
804,0,55.527672,7.375596,25.642958,25.121626,44.733490,56.562443,-19.104317,73.641922,65.180969,-138.891769,168.265503,48.776012
805,0,55.513809,7.373896,25.646454,25.124533,44.733501,56.549469,-19.101013,73.669456,65.169281,-138.864197,168.300308,48.805771
806,0,55.515457,7.372574,25.645599,25.114292,44.749722,56.545109,-19.099880,73.690384,65.125534,-138.874985,168.281555,48.733582
807,0,55.544708,7.387977,25.652943,25.144777,44.787445,56.514488,-19.088917,73.707314,65.083061,-138.812485,168.302109,48.720783
808,0,55.530067,7.391208,25.626753,25.145668,44.799522,56.491516,-19.076462,73.732147,65.072929,-138.789780,168.313080,48.673939
809,0,55.526180,7.387073,25.631868,25.166803,44.802216,56.472309,-19.093779,73.776314,65.033760,-138.813110,168.300842,48.598488
810,0,55.545464,7.381708,25.649212,25.166576,44.846706,56.457638,-19.083113,73.781746,65.017296,-138.784912,168.328751,48.560112
811,0,55.544022,7.383903,25.647284,25.155830,44.847969,56.440228,-19.090164,73.780952,64.992149,-138.826523,168.335052,48.522064
812,0,55.571480,7.385693,25.653248,25.167322,44.844440,56.457108,-19.099262,73.789864,64.967239,-138.795044,168.342026,48.511395
813,0,55.547611,7.386436,25.651291,25.174513,44.856300,56.449524,-19.097034,73.791138,64.961700,-138.793625,168.349014,48.493832
814,0,55.550579,7.379116,25.657701,25.158081,44.875092,56.435646,-19.096325,73.791428,64.962044,-138.789108,168.333069,48.470146
815,0,55.543785,7.391620,25.656979,25.152180,44.863060,56.438370,-19.111998,73.767517,64.957664,-138.824951,168.305527,48.482204
816,0,55.540958,7.409369,25.649092,25.131659,44.852310,56.439159,-19.113873,73.756966,64.952599,-138.870178,168.335602,48.460304
817,0,55.537109,7.411822,25.658842,25.140409,44.875698,56.420036,-19.110132,73.771904,64.951736,-138.868423,168.311844,48.460636
818,0,55.553005,7.416530,25.654999,25.116695,44.907276,56.414898,-19.108728,73.761497,64.963715,-138.898743,168.317062,48.460339
819,0,55.520248,7.428466,25.653288,25.117809,44.900269,56.443798,-19.131672,73.778954,64.948982,-138.913162,168.336334,48.522926
820,0,55.518143,7.416576,25.663427,25.099184,44.917873,56.429455,-19.113873,73.790573,64.956741,-138.928482,168.340286,48.533829
821,0,55.525211,7.438232,25.679239,25.110416,44.927696,56.428288,-19.128931,73.829880,64.956657,-138.929382,168.339813,48.533566
822,0,55.520828,7.444370,25.691280,25.126019,44.928459,56.421124,-19.111839,73.818146,64.951729,-138.928909,168.338791,48.532490
823,0,55.534573,7.439566,25.711740,25.145494,44.961071,56.424232,-19.093494,73.824722,64.994049,-138.914062,168.370087,48.536633
824,0,55.534309,7.455105,25.676517,25.144501,44.960922,56.424675,-19.120369,73.845551,64.979034,-138.909485,168.364868,48.549744
825,0,55.546234,7.453385,25.692621,25.143438,44.932663,56.434555,-19.111034,73.833443,64.979416,-138.904022,168.355682,48.509670
826,0,55.549839,7.447444,25.698109,25.117878,44.939922,56.428581,-19.112608,73.818451,64.952003,-138.917694,168.325058,48.505234
827,0,55.548988,7.446943,25.684242,25.169580,44.948875,56.452217,-19.109655,73.818077,64.946579,-138.916534,168.295044,48.494373
828,0,55.531403,7.468562,25.681370,25.143837,44.950851,56.433472,-19.106043,73.796463,64.980331,-138.927826,168.301712,48.481083
829,0,55.534573,7.423427,25.685740,25.108686,44.911442,56.430607,-19.104570,73.785309,65.007484,-138.928558,168.274323,48.498863
830,0,55.512024,7.436308,25.644415,25.125156,44.895367,56.456951,-19.139151,73.773819,64.990112,-138.958847,168.237076,48.500359
831,0,55.514553,7.425971,25.668806,25.126043,44.895809,56.455875,-19.121845,73.761520,65.035645,-139.007706,168.198761,48.504612
832,0,55.536255,7.430748,25.678999,25.117182,44.897873,56.462963,-19.151533,73.746712,65.028061,-139.022858,168.214493,48.535728
833,0,55.509705,7.432214,25.664139,25.143974,44.878826,56.474976,-19.151764,73.735153,65.044464,-139.039352,168.195312,48.542946
834,0,55.520023,7.432423,25.679575,25.112288,44.899250,56.469387,-19.169088,73.738213,65.056755,-139.061249,168.145874,48.551472
835,0,55.516918,7.443040,25.678871,25.134462,44.884918,56.468513,-19.172356,73.741249,65.065765,-139.100677,168.136108,48.559086
836,0,55.511375,7.462889,25.627703,25.087833,44.907043,56.447559,-19.192440,73.752716,65.057770,-139.110489,168.129028,48.558468
837,0,55.580322,7.482238,25.662426,25.082628,44.912453,56.467884,-19.199272,73.734787,65.057411,-139.126083,168.105667,48.585335
838,0,55.526672,7.461795,25.668102,25.086361,44.880661,56.473351,-19.203373,73.723961,65.059341,-139.177811,168.095078,48.578827
839,0,55.502373,7.465893,25.652117,25.074465,44.886654,56.435925,-19.212275,73.712822,65.019104,-139.208633,168.097580,48.574284
840,0,55.512409,7.489966,25.646912,25.087814,44.891388,56.423447,-19.216839,73.727959,65.027100,-139.209579,168.061905,48.546032
841,0,55.501053,7.425070,25.744101,25.088123,44.887974,56.429737,-19.216398,73.717682,65.011505,-139.264862,168.032455,48.512218
842,0,55.516132,7.469720,25.690332,25.072756,44.891567,56.429836,-19.233488,73.711922,64.997726,-139.264740,168.039612,48.516232
843,0,55.508850,7.471124,25.682970,25.060602,44.870865,56.430561,-19.218660,73.683556,65.013008,-139.276321,167.999695,48.541069
844,0,55.504345,7.473474,25.692619,25.080141,44.901066,56.422146,-19.219448,73.683838,65.012909,-139.290100,167.972733,48.539124
845,0,55.488991,7.491347,25.693527,25.077528,44.880215,56.437317,-19.219776,73.694405,65.028465,-139.333115,167.967148,48.535355
846,0,55.494606,7.475093,25.673105,25.079756,44.891441,56.458744,-19.232536,73.697586,65.044090,-139.348465,167.959320,48.604012
847,0,55.505745,7.471784,25.673962,25.079599,44.889713,56.458710,-19.211603,73.678963,65.063911,-139.322769,167.919342,48.573139
848,0,55.482204,7.438800,25.692722,25.075722,44.892792,56.454979,-19.216932,73.691338,65.044983,-139.377319,167.919357,48.580383
849,0,55.529785,7.463944,25.656830,25.088404,44.879116,56.456406,-19.207136,73.680389,65.079048,-139.334106,167.938126,48.634434
850,0,55.526337,7.502535,25.640026,25.131065,44.853512,56.476727,-19.202122,73.675179,65.085838,-139.337006,167.935913,48.634464
851,0,55.540039,7.488668,25.630405,25.144629,44.869896,56.481045,-19.164476,73.653168,65.097412,-139.324341,167.935272,48.645344
852,0,55.571362,7.486442,25.652498,25.200115,44.871109,56.486706,-19.137394,73.670357,65.117905,-139.280350,167.907043,48.674370
853,0,55.561279,7.491395,25.651953,25.173740,44.878162,56.495300,-19.125883,73.643669,65.120956,-139.296082,167.909393,48.650673
854,0,55.553150,7.467002,25.662739,25.163532,44.804710,56.513309,-19.164881,73.610947,65.136375,-139.263596,167.871567,48.640831
855,0,55.548866,7.475164,25.653503,25.130518,44.756393,56.540539,-19.184933,73.578827,65.191246,-139.257965,167.869675,48.655323
856,0,55.501812,7.462066,25.646896,25.125885,44.752331,56.543598,-19.184916,73.554665,65.220016,-139.261139,167.866180,48.636517
857,0,55.524792,7.447021,25.645121,25.106607,44.751560,56.569695,-19.190414,73.527519,65.230194,-139.254135,167.817551,48.655155
858,0,55.488293,7.442796,25.630808,25.122215,44.715988,56.590340,-19.185982,73.499657,65.242424,-139.274933,167.814819,48.630405
859,0,55.458252,7.456429,25.622068,25.085918,44.689716,56.581894,-19.210079,73.524162,65.278809,-139.248856,167.815262,48.672131
860,0,55.470493,7.454989,25.623013,25.093039,44.689541,56.608120,-19.212364,73.531433,65.288490,-139.285156,167.807999,48.685337
861,0,55.508797,7.459311,25.649534,25.124710,44.713139,56.581219,-19.209955,73.520683,65.267517,-139.257553,167.817017,48.659870
862,0,55.515846,7.496831,25.631212,25.127459,44.763222,56.586346,-19.184053,73.533302,65.241600,-139.261398,167.822464,48.661911
863,0,55.549454,7.511222,25.628283,25.175293,44.792088,56.535583,-19.166578,73.592064,65.234566,-139.259933,167.871490,48.630878
864,0,55.552391,7.515956,25.623016,25.169054,44.813801,56.519733,-19.141727,73.595802,65.197250,-139.259689,167.868057,48.633709
865,0,55.531986,7.484380,25.640547,25.178759,44.817955,56.532497,-19.123041,73.641869,65.180298,-139.255035,167.896286,48.640667
866,0,55.535187,7.517653,25.619379,25.201439,44.866848,56.503368,-19.118536,73.649368,65.153358,-139.298462,167.892273,48.614716
867,0,55.547985,7.533167,25.622400,25.199978,44.867405,56.504772,-19.123821,73.681908,65.133171,-139.278320,167.881485,48.576878
868,0,55.542313,7.532644,25.623987,25.196907,44.908985,56.491028,-19.122631,73.671211,65.112274,-139.278137,167.907043,48.608139
869,0,55.556553,7.535799,25.633541,25.197895,44.919437,56.485119,-19.098585,73.728661,65.073959,-139.288879,167.948456,48.595322
870,0,55.557560,7.544439,25.609859,25.222929,44.947330,56.468689,-19.118847,73.728905,65.071846,-139.222885,167.926865,48.536777
871,0,55.561386,7.574646,25.618870,25.242229,44.938660,56.459564,-19.092077,73.743591,65.067505,-139.257751,167.947617,48.545155
872,0,55.559975,7.560667,25.624908,25.238110,44.948822,56.469620,-19.102030,73.754745,65.054062,-139.261795,167.927628,48.463272
873,0,55.571224,7.556402,25.613020,25.232512,44.989288,56.446831,-19.103985,73.757759,65.037796,-139.310684,167.933685,48.482201
874,0,55.572395,7.575529,25.619469,25.225389,44.969913,56.438862,-19.100830,73.757919,65.032242,-139.315002,167.938126,48.446457
875,0,55.572193,7.549057,25.642712,25.236935,44.962345,56.428471,-19.100695,73.746811,65.016747,-139.369049,167.889542,48.414330
876,0,55.593491,7.561519,25.624258,25.238056,44.970688,56.409920,-19.111164,73.747971,65.000679,-139.361084,167.876266,48.361645
877,0,55.565979,7.562889,25.653542,25.220116,44.980560,56.390072,-19.174631,73.727692,64.965637,-139.383789,167.814056,48.333435
878,0,55.563965,7.563525,25.643387,25.216536,45.001877,56.417332,-19.183605,73.773254,64.933769,-139.418289,167.805252,48.275684
879,0,55.579811,7.577032,25.635212,25.185886,45.019657,56.397511,-19.180237,73.756660,64.929070,-139.421310,167.800323,48.270531
880,0,55.580502,7.561188,25.654640,25.202780,45.019913,56.379650,-19.179457,73.756729,64.929253,-139.418793,167.800400,48.269569
881,0,55.591434,7.579536,25.615776,25.184755,45.057350,56.362293,-19.211609,73.774635,64.900375,-139.502090,167.808578,48.249611
882,0,55.567833,7.578459,25.631041,25.157938,45.060505,56.337963,-19.212116,73.793121,64.840919,-139.531769,167.800110,48.180752
883,0,55.616955,7.585340,25.647591,25.171812,45.075085,56.341812,-19.225401,73.826317,64.843491,-139.534119,167.792694,48.148716
884,0,55.585876,7.578046,25.640726,25.178150,45.073254,56.339615,-19.210541,73.820267,64.845078,-139.516373,167.777664,48.141071
885,0,55.561718,7.594899,25.632797,25.161798,45.084637,56.342083,-19.209244,73.803284,64.845360,-139.515045,167.777039,48.140461
886,0,55.563389,7.594133,25.636492,25.147116,45.109272,56.332447,-19.231054,73.847359,64.829277,-139.526154,167.760071,48.069126
887,0,55.537437,7.604736,25.622215,25.138847,45.101486,56.330059,-19.248920,73.842155,64.839935,-139.565567,167.794312,48.053585
888,0,55.563438,7.590780,25.640268,25.144032,45.092567,56.339916,-19.243435,73.837860,64.847504,-139.566513,167.770996,48.065968
889,0,55.540783,7.592892,25.646070,25.129808,45.062450,56.340458,-19.244120,73.836952,64.847305,-139.533585,167.803024,48.091999
890,0,55.544559,7.594069,25.629084,25.131777,45.068260,56.350594,-19.246651,73.826851,64.842751,-139.533051,167.780273,48.043213
891,0,55.567341,7.592943,25.651812,25.138563,45.085438,56.339401,-19.245987,73.826347,64.842781,-139.529556,167.779755,48.014973
892,0,55.589077,7.600751,25.628727,25.147036,45.061066,56.342400,-19.240431,73.821434,64.849495,-139.520279,167.763763,47.997021
893,0,55.572178,7.560958,25.652012,25.161377,45.070435,56.347015,-19.230963,73.820183,64.843475,-139.469223,167.809036,47.981182
894,0,55.603924,7.595074,25.642406,25.154617,45.094830,56.332413,-19.185883,73.827049,64.789825,-139.448578,167.814194,47.956337
895,0,55.575848,7.611417,25.643707,25.195560,45.131313,56.306572,-19.203861,73.876518,64.786049,-139.461792,167.826218,47.884453
896,0,55.592300,7.637538,25.645817,25.170818,45.139637,56.288185,-19.210915,73.873489,64.779884,-139.479172,167.845108,47.872234
897,0,55.579418,7.610491,25.643074,25.169334,45.156166,56.280537,-19.188419,73.866432,64.733078,-139.502335,167.869049,47.849457
898,0,55.574516,7.623207,25.642204,25.159100,45.140133,56.266941,-19.209393,73.941719,64.710129,-139.463882,167.878067,47.795174
899,0,55.551147,7.625265,25.624424,25.177143,45.200691,56.260494,-19.233856,73.960175,64.695267,-139.474869,167.877441,47.760479
900,0,55.526295,7.660179,25.637672,25.171062,45.198910,56.230698,-19.239599,73.956947,64.684013,-139.478409,167.858261,47.705589
901,0,55.569981,7.685648,25.629114,25.171631,45.197563,56.231022,-19.226978,73.957893,64.656479,-139.468033,167.879898,47.699047
902,0,55.526993,7.674427,25.619934,25.155418,45.250175,56.203712,-19.227673,73.974365,64.647064,-139.474716,167.881424,47.659641
903,0,55.534492,7.656489,25.648619,25.127201,45.258739,56.195805,-19.238703,73.972336,64.621811,-139.469604,167.875381,47.616562
904,0,55.529526,7.661149,25.643745,25.152952,45.248726,56.223110,-19.252430,74.000603,64.618553,-139.487366,167.887665,47.648251
905,0,55.552494,7.672981,25.623123,25.155617,45.253609,56.198582,-19.274418,73.988365,64.584137,-139.463547,167.857193,47.599403
906,0,55.549084,7.677108,25.619530,25.156204,45.252083,56.198662,-19.259394,73.998627,64.580650,-139.503387,167.870590,47.587189
907,0,55.602966,7.663180,25.647282,25.149708,45.257332,56.192455,-19.256416,73.999153,64.575279,-139.501190,167.857819,47.581612
908,0,55.552364,7.672481,25.622892,25.134176,45.262730,56.190224,-19.268932,73.985947,64.569061,-139.491684,167.843704,47.527653
