Trajectories
100
,,sano:Uln,,,sano:MPH3,,,sano:Rad,,,sano:PIP3,,,sano:DIP3,,,sano:DIP4,,,
Frame,Sub Frame,X,Y,Z,X,Y,Z,X,Y,Z,X,Y,Z,X,Y,Z,X,Y,Z
,,mm,mm,mm,mm,mm,mm,mm,mm,mm,mm,mm,mm,mm,mm,mm,mm,mm,mm
1,0,142.218597,-97.049034,-6.224433,50.645187,-36.168919,53.082390,88.935394,-146.448593,-2.870650,7.635877,12.431366,53.677341,-16.058828,39.166622,36.608292,,,
2,0,142.218918,-97.042168,-6.215147,50.637810,-36.165489,53.089859,88.913254,-146.423248,-2.931957,7.645613,12.425625,53.670925,-16.036335,39.157520,36.617435,,,
3,0,142.218597,-97.049034,-6.224433,50.650883,-36.151268,53.078667,88.913284,-146.423386,-2.932101,7.657528,12.431271,53.662800,-16.046022,39.167946,36.610832,,,
4,0,142.218597,-97.049034,-6.224433,50.625820,-36.142273,53.086555,88.888351,-146.433243,-2.985809,7.652828,12.440139,53.663990,-16.046219,39.198055,36.618626,,,
5,0,142.215012,-97.040573,-6.244682,50.633533,-36.131386,53.071285,88.840012,-146.372742,-3.001457,7.663883,12.463831,53.674980,-16.059031,39.197151,36.613277,,,
6,0,142.192184,-96.999405,-6.254861,50.588177,-36.113827,53.071812,88.798256,-146.386002,-3.006359,7.643637,12.431529,53.677914,-16.066607,39.205032,36.614296,,,
7,0,142.176559,-97.001442,-6.258586,50.586246,-36.122322,53.053299,88.888290,-146.441483,-2.994064,7.632723,12.463614,53.675095,-16.082624,39.223503,36.603226,,,
8,0,142.164566,-97.023735,-6.234225,50.541901,-36.096878,53.037872,88.918854,-146.451477,-2.998280,7.602364,12.437181,53.677856,-16.080587,39.210705,36.614410,,,
9,0,142.130905,-96.982224,-6.175920,50.526642,-36.078678,53.048260,88.910866,-146.467804,-3.004881,7.619580,12.505421,53.686005,-16.102503,39.232529,36.617878,,,
10,0,142.124924,-96.999435,-6.066927,50.854435,-36.349834,53.078926,88.845680,-146.331680,-2.848250,7.605722,12.520319,53.709492,-16.118166,39.276165,36.638920,,,
11,0,142.138962,-96.982651,-5.945843,50.848385,-36.262764,53.115623,88.881622,-146.334732,-2.761867,7.644950,12.584471,53.723289,-16.108461,39.321419,36.646168,,,
12,0,142.144913,-96.957771,-5.818756,50.883194,-36.162914,53.171238,88.852242,-146.313202,-2.508102,7.655212,12.695098,53.770161,-16.085030,39.420654,36.667923,,,
13,0,142.152893,-96.995171,-5.669355,50.928371,-36.028217,53.249126,88.949738,-146.289124,-2.347825,7.699258,12.840193,53.783089,-16.074619,39.487000,36.651569,,,
14,0,142.187332,-96.937515,-5.427144,50.989193,-35.898804,53.345528,89.772865,-145.906784,-2.221904,7.779183,12.969893,53.823582,-16.043993,39.597717,36.675880,,,
15,0,142.221436,-96.919853,-5.185875,51.063221,-35.752468,53.463783,88.973549,-146.106781,-1.587735,7.842050,13.087494,53.861217,-15.984435,39.664822,36.671383,,,
16,0,142.317413,-96.831039,-4.864527,51.145962,-35.551052,53.586262,89.062775,-146.093018,-1.229883,7.899213,13.222111,53.899414,-15.955390,39.785378,36.708595,,,
17,0,142.363144,-96.798683,-4.566833,51.252384,-35.383121,53.695553,89.199814,-146.063370,-0.818648,7.963449,13.406835,53.964725,-15.915902,39.890171,36.715500,,,
18,0,142.461777,-96.774666,-4.328617,51.371433,-35.184433,53.817772,89.324944,-146.087357,-0.422955,8.038849,13.563164,53.975056,-15.875563,40.005680,36.725780,,,
19,0,142.586304,-96.677147,-3.985767,51.428101,-35.002987,53.925667,89.439583,-146.035172,0.019778,8.110264,13.704381,54.008923,-15.829675,40.096886,36.728058,,,
20,0,142.677231,-96.578682,-3.722620,51.521736,-34.820030,54.067814,89.444672,-145.895050,0.431383,8.156667,13.834136,54.048672,-15.792317,40.191471,36.721760,,,
21,0,142.831253,-96.459480,-3.443418,51.633240,-34.686489,54.152096,89.618385,-145.852142,0.825121,8.204343,13.933400,54.106064,-15.759353,40.254547,36.743656,,,
22,0,142.904327,-96.374062,-3.158228,51.705231,-34.517746,54.237186,89.694588,-145.759094,1.206854,8.264232,14.046773,54.137722,-15.731350,40.319683,36.758484,,,
23,0,143.020325,-96.241974,-2.896836,51.788883,-34.370388,54.350109,89.726624,-145.721924,1.555613,8.284820,14.132864,54.182621,-15.740211,40.349110,36.764301,,,
24,0,143.125626,-96.098373,-2.650721,51.840630,-34.252541,54.441257,89.747009,-145.514755,1.911121,8.279164,14.231580,54.181820,-15.751491,40.403610,36.781769,,,
25,0,143.223038,-95.946793,-2.418801,51.896088,-34.060532,54.481041,89.878677,-145.411987,2.176487,8.275311,14.294657,54.215733,-15.756171,40.446201,36.774982,,,
26,0,143.272827,-95.792397,-2.283624,51.930706,-33.951324,54.571701,89.935768,-145.337997,2.429156,8.287602,14.338225,54.252640,-15.793841,40.490776,36.782707,,,
27,0,143.355270,-95.661613,-2.075949,51.985744,-33.913197,54.618977,89.998833,-145.289581,2.702310,8.284228,14.393411,54.270916,-15.779112,40.536457,36.761520,,,
28,0,143.432999,-95.448700,-1.908353,51.823315,-34.042034,54.537960,90.014275,-145.150009,2.966260,8.308519,14.446896,54.305347,-15.770025,40.566597,36.784664,,,
29,0,143.492294,-95.293312,-1.703147,51.814613,-34.000389,54.582928,90.172997,-145.089188,3.179677,8.273431,14.490624,54.324867,-15.790030,40.628132,36.780350,,,
30,0,143.582687,-95.143753,-1.519745,51.789951,-33.920120,54.642136,90.312782,-144.970367,3.352985,8.277268,14.568933,54.357430,-15.837849,40.661549,36.805721,,,
31,0,143.686096,-94.998032,-1.316032,51.810806,-33.852200,54.687706,90.525772,-144.961456,3.568520,8.278060,14.614154,54.369087,-15.819997,40.675415,36.811562,,,
32,0,143.743088,-94.808090,-1.167439,51.833183,-33.789547,54.735344,90.661636,-144.884079,3.703048,8.280030,14.691908,54.392059,-15.833350,40.765881,36.828796,,,
33,0,143.823273,-94.653366,-1.083784,51.878330,-33.670475,54.816967,90.773315,-144.821625,3.867648,8.283446,14.779438,54.423817,-15.845232,40.807812,36.847565,,,
34,0,143.908508,-94.484581,-0.959811,51.876427,-33.569313,54.828587,90.874405,-144.771194,3.995413,8.280666,14.835119,54.444729,-15.852993,40.867123,36.854160,,,
35,0,143.948990,-94.350281,-0.904364,51.882164,-33.493877,54.868301,91.046318,-144.646759,4.168177,8.283846,14.888116,54.496498,-15.913133,40.877510,36.872173,,,
36,0,143.986923,-94.169128,-0.829068,51.899635,-33.453724,54.916958,90.975685,-144.495132,4.340618,8.334106,15.035137,54.540707,-15.955143,40.958988,36.879120,,,
37,0,144.007507,-94.045967,-0.787124,51.863056,-33.388897,54.904873,91.113914,-144.396606,4.417799,8.405778,15.168870,54.597195,-15.968552,40.994488,36.927067,,,
38,0,144.011230,-93.896965,-0.757461,51.859333,-33.344391,54.937538,91.253441,-144.368149,4.509953,8.562297,15.383830,54.700062,-15.991639,41.036777,36.933971,,,
39,0,144.011444,-93.827522,-0.749897,51.840374,-33.334866,54.941769,91.344437,-144.281509,4.582872,8.695102,15.549424,54.762089,-15.747668,41.190163,36.938435,,,
40,0,143.982193,-93.690430,-0.701843,51.818462,-33.290337,54.948982,91.406517,-144.176575,4.622571,8.357471,15.280740,54.610256,-15.681589,41.374187,36.986057,,,
41,0,143.968231,-93.605133,-0.680787,51.783615,-33.233364,54.980064,91.236595,-144.050598,4.807859,8.219551,15.224779,54.621342,-16.087416,41.200974,36.951050,,,
42,0,143.956787,-93.494011,-0.656786,51.794056,-33.219322,55.008606,91.455109,-144.005646,4.785638,8.203499,15.262793,54.644806,-16.075966,41.265278,36.964836,,,
43,0,143.926590,-93.415092,-0.647796,51.833256,-33.163380,55.020149,91.472275,-143.946228,4.884830,8.196295,15.314718,54.664856,-16.108084,41.296288,36.971901,,,
44,0,143.860733,-93.323280,-0.629152,51.812962,-33.096283,55.043301,91.448517,-143.875183,5.033663,8.197958,15.337089,54.675640,-16.127823,41.316494,36.984421,,,
45,0,143.903107,-93.273521,-0.570300,51.846886,-33.053677,55.110153,91.458389,-143.845352,5.100899,8.185924,15.419149,54.703976,-16.132986,41.377819,37.005295,,,
46,0,143.892563,-93.205765,-0.511419,51.853001,-32.986275,55.126301,92.579033,-143.680557,4.724217,8.196787,15.454463,54.738636,-16.138884,41.409302,37.024139,,,
47,0,143.884323,-93.179047,-0.472534,51.912907,-32.897984,55.165222,92.767944,-143.767822,4.769217,8.235595,15.513304,54.763412,-16.145403,41.466644,37.029053,,,
48,0,143.889923,-93.178299,-0.422516,51.953575,-32.861778,55.223515,91.745346,-143.831009,5.363439,8.252170,15.586187,54.781670,-16.149504,41.490345,37.036240,,,
49,0,143.893036,-93.159065,-0.380125,51.982460,-32.768169,55.281540,91.747223,-143.754166,5.530479,8.303257,15.646827,54.768543,-16.112297,41.515022,37.042015,,,
50,0,143.914978,-93.139038,-0.324221,52.064854,-32.707684,55.335487,91.864838,-143.804260,5.615435,8.361758,15.691483,54.800884,-16.092768,41.565536,37.049793,,,
51,0,143.906647,-93.105568,-0.313782,52.111412,-32.623020,55.367859,91.922829,-143.802094,5.633851,8.436078,15.784213,54.824150,-16.086962,41.598289,37.071896,,,
52,0,143.920609,-93.103531,-0.287330,52.183189,-32.585125,55.395714,91.929176,-143.753967,5.745306,8.456272,15.813230,54.832150,-16.073830,41.620735,37.055801,,,
53,0,143.899521,-93.094063,-0.290929,52.208588,-32.510464,55.419365,91.929657,-143.741714,5.812927,8.516136,15.874456,54.853443,-16.077143,41.620975,37.063820,,,
54,0,143.936966,-93.100899,-0.278863,52.239059,-32.492634,55.473289,91.853554,-143.732880,5.903685,8.545532,15.913166,54.860123,-16.039913,41.647228,37.061871,,,
55,0,143.903397,-93.058212,-0.280459,52.267483,-32.464390,55.444695,91.779312,-143.679688,5.993836,8.584683,15.931806,54.864063,-16.029688,41.701771,37.056725,,,
56,0,143.937988,-93.070190,-0.246863,52.291653,-32.456497,55.462189,91.761375,-143.667908,6.059555,8.606624,15.937645,54.850662,-16.049978,41.700283,37.049164,,,
57,0,143.926300,-93.054779,-0.222360,52.294807,-32.453548,55.459717,91.905540,-143.733047,6.076407,8.636464,15.951110,54.864338,-16.031876,41.688614,37.039780,,,
58,0,143.937363,-93.043884,-0.200147,52.319988,-32.439102,55.504993,91.870293,-143.663040,6.067935,8.646569,15.963972,54.856247,-16.047741,41.707508,37.058975,,,
59,0,143.948303,-93.034157,-0.190011,52.338379,-32.417294,55.517418,91.855881,-143.667191,6.072586,8.670379,15.992270,54.887383,-16.058754,41.722977,37.055492,,,
60,0,143.949814,-92.996994,-0.180118,52.343784,-32.350529,55.556274,91.890762,-143.664337,6.142293,8.687609,16.019917,54.881321,-16.034554,41.741570,37.062714,,,
61,0,143.972809,-92.981125,-0.193362,52.363873,-32.304474,55.572575,92.079300,-143.699387,6.133389,8.711858,16.057890,54.902660,-16.034185,41.738571,37.075005,,,
62,0,143.989746,-92.870300,-0.162621,52.417946,-32.274094,55.574665,92.090050,-143.695786,6.130087,8.717429,16.080320,54.913250,-16.029137,41.759575,37.068195,,,
63,0,143.992981,-92.873848,-0.141336,52.433422,-32.270752,55.600719,92.112633,-143.694153,6.136544,8.727355,16.109999,54.914402,-15.985698,41.810162,37.078289,,,
64,0,144.014938,-92.871544,-0.125704,52.476414,-32.245541,55.653389,92.184219,-143.636780,6.180767,8.741054,16.119205,54.918842,-15.955661,41.612778,37.070129,,,
65,0,144.036377,-92.850136,-0.084541,52.525944,-32.406219,55.706352,92.283188,-143.664856,6.185605,8.744384,16.143518,54.909492,-15.963310,41.675396,37.084637,,,
66,0,144.054092,-92.841270,-0.059618,52.555630,-32.418659,55.727882,92.357254,-143.678162,6.241209,8.754000,16.138365,54.925674,-15.949523,41.745701,37.106327,,,
67,0,144.049606,-92.809692,-0.045437,52.564873,-32.376217,55.716408,92.425278,-143.657394,6.218945,8.750708,16.146156,54.928364,-15.959343,41.787537,37.103458,,,
68,0,144.056763,-92.817482,-0.025384,52.560558,-32.327618,55.761257,92.435188,-143.636200,6.256939,8.754230,16.145899,54.940304,-15.960338,41.811962,37.104675,,,
69,0,144.076355,-92.760147,-0.021450,52.517826,-32.329376,55.738132,92.363869,-143.673172,6.301230,8.737691,16.146744,54.929649,-15.952810,41.839539,37.115501,,,
70,0,144.102051,-92.731598,0.013583,52.469059,-32.262615,55.776909,92.340675,-143.572601,6.304223,8.745031,16.148212,54.948071,-15.956163,41.849567,37.124691,,,
71,0,144.088852,-92.732185,0.059118,52.474739,-32.203323,55.761944,92.421761,-143.567154,6.317706,8.760954,16.173185,54.963684,-15.958018,41.881226,37.123436,,,
72,0,144.109497,-92.716309,0.073476,52.464462,-32.203072,55.785652,92.480156,-143.615219,6.307698,8.742848,16.161276,54.965332,-15.965456,41.914555,37.126087,,,
73,0,144.091263,-92.663795,0.075039,52.449261,-32.196529,55.782635,92.677856,-143.646591,6.297032,8.733982,16.167971,54.972492,-16.007332,41.957584,37.086567,,,
74,0,144.117050,-92.624756,0.125051,52.464085,-32.184952,55.788338,92.666290,-143.588348,6.304513,8.730526,16.176949,54.989830,-16.028954,42.031693,37.065014,,,
75,0,144.154526,-92.584686,0.136420,52.464203,-32.171364,55.841087,93.391884,-143.435608,6.058498,8.687922,16.195467,55.003029,-16.044483,42.087311,37.077263,,,
76,0,144.172729,-92.505280,0.194205,52.485218,-32.170647,55.861526,93.488235,-143.423828,6.034246,8.698207,16.213066,55.018196,-16.012642,41.832970,37.081753,,,
77,0,144.205994,-92.496490,0.201062,52.477802,-32.123684,55.869339,93.513298,-143.359818,6.100895,8.701350,16.214594,55.012466,-16.029465,42.039898,37.085049,,,
78,0,144.224731,-92.465523,0.209033,52.484989,-32.071938,55.883488,93.491486,-143.264297,6.088668,8.700674,16.227510,55.019714,-15.995149,41.855228,37.086746,,,
79,0,144.229431,-92.405006,0.237686,52.496178,-32.072388,55.890491,93.681175,-143.400360,5.986590,8.695077,16.266537,55.048092,-15.993377,41.884274,37.110126,,,
80,0,144.248505,-92.363213,0.249957,52.505894,-32.067535,55.931526,93.778488,-143.389145,5.966330,8.709291,16.280321,55.073254,-15.988076,41.922516,37.129925,,,
81,0,144.281570,-92.318695,0.252598,52.529682,-32.037621,55.969662,93.093628,-143.291824,6.298655,8.706315,16.312565,55.100636,-15.991537,41.932049,37.151100,,,
82,0,144.262970,-92.266449,0.219176,52.532600,-32.001930,55.993160,93.155624,-143.300903,6.237032,8.687669,16.337591,55.103230,-15.975110,41.945950,37.139519,,,
83,0,144.258087,-92.263573,0.191010,52.565498,-31.962406,56.011028,93.148300,-143.277283,6.291760,8.706770,16.375139,55.122658,-15.974639,41.970043,37.144741,,,
84,0,144.273209,-92.229240,0.220766,52.567837,-31.940758,56.029819,93.211617,-143.291550,6.235151,8.708457,16.385942,55.124702,-15.978618,41.973965,37.134907,,,
85,0,144.262314,-92.220650,0.199260,52.569038,-31.932644,56.056145,93.099754,-143.214600,6.208549,8.696121,16.382666,55.119835,-15.978436,41.999817,37.159866,,,
86,0,144.271301,-92.225952,0.173582,52.576622,-31.928860,56.049141,93.167755,-143.216446,6.227983,8.706380,16.369513,55.118488,-15.968436,41.963707,37.150417,,,
87,0,144.274612,-92.213013,0.111889,52.588314,-31.932238,56.045887,93.199295,-143.191757,6.191931,8.709874,16.377127,55.124187,-15.956822,41.964325,37.137695,,,
88,0,144.289856,-92.240410,0.062273,52.589211,-31.931755,56.015697,93.151321,-143.151703,6.120321,8.724392,16.378166,55.114651,-15.940096,41.987213,37.143688,,,
89,0,144.276810,-92.243042,0.022571,52.581551,-31.930666,56.005978,93.131248,-143.142197,6.103292,8.719965,16.369871,55.111408,-15.932918,41.959526,37.130394,,,
90,0,144.264542,-92.253479,-0.041256,52.589851,-31.939625,56.009861,93.131332,-143.169403,6.068384,8.711482,16.353043,55.096581,-15.951725,41.960117,37.147877,,,
91,0,144.248169,-92.254662,-0.072453,52.605556,-31.971649,55.997070,93.305458,-143.276611,6.034404,8.701715,16.335558,55.110157,-15.920997,41.956615,37.147644,,,
92,0,144.234543,-92.305099,-0.136761,52.606640,-32.015324,55.996727,93.300743,-143.250046,6.001946,8.700420,16.336742,55.107719,-15.921630,41.956642,37.150238,,,
93,0,144.185410,-92.358788,-0.228146,52.572796,-32.034321,55.985817,93.377663,-143.290665,5.928977,8.707726,16.325899,55.107643,-15.918644,41.946705,37.147587,,,
94,0,144.167221,-92.378448,-0.241796,52.554848,-32.057850,55.956467,93.515709,-143.226059,5.862203,8.692539,16.293808,55.088097,-15.903291,41.930645,37.135410,,,
95,0,144.122116,-92.403725,-0.320296,52.537220,-32.097530,55.940559,93.848114,-143.173965,5.873548,8.683220,16.247532,55.074913,-15.914647,41.904690,37.124294,,,
96,0,144.086884,-92.488792,-0.342040,52.542599,-32.098190,55.923916,94.054436,-143.203110,5.866316,8.682084,16.263128,55.072296,-15.911097,41.914837,37.134251,,,
97,0,144.064545,-92.502090,-0.391295,52.510307,-32.089691,55.905140,94.403069,-143.197678,5.757509,8.684417,16.258898,55.063805,-15.920233,41.911446,37.122101,,,
98,0,144.018494,-92.514381,-0.428021,52.505802,-32.103302,55.898308,92.497559,-143.713547,5.921483,8.686771,16.257954,55.051765,-15.910406,41.921688,37.124077,,,
99,0,144.001755,-92.537849,-0.440767,52.511505,-32.095463,55.910835,94.143860,-143.386414,5.819301,8.667310,16.242008,55.088669,-15.906943,41.919647,37.135338,,,
100,0,143.973724,-92.605194,-0.474805,52.502132,-32.114994,55.908424,92.570190,-143.807953,5.899216,8.678908,16.252813,55.071980,-15.907811,41.922775,37.142155,,,
101,0,143.966736,-92.640686,-0.506299,52.517334,-32.115105,55.904697,92.570602,-143.805527,5.901372,8.674905,16.253487,55.059532,-15.906678,41.924210,37.142773,,,
102,0,143.940170,-92.648621,-0.527513,52.517292,-32.151569,55.911400,92.570427,-143.806580,5.900445,8.675202,16.243744,55.080673,-15.902257,41.923805,37.141232,,,
103,0,143.918808,-92.614182,-0.556781,52.486607,-32.179802,55.932789,92.486221,-143.869781,5.875177,8.662911,16.241571,55.069206,-15.899664,41.923660,37.138084,,,
104,0,143.923233,-92.644196,-0.554173,52.469707,-32.191795,55.899452,92.432343,-143.894653,5.817946,8.660537,16.238497,55.071777,-15.906713,41.921368,37.144039,,,
105,0,143.896927,-92.607613,-0.575022,52.460396,-32.185764,55.921936,92.306931,-143.819733,5.787968,8.644597,16.232796,55.052765,-15.916553,41.910000,37.136787,,,
106,0,143.917450,-92.620438,-0.572610,52.486858,-32.207870,55.904366,92.570488,-143.860489,5.792201,8.658220,16.194614,55.061127,-15.918882,41.860477,37.124226,,,
107,0,143.919098,-92.584366,-0.588209,52.468548,-32.208469,55.906063,92.498711,-143.816513,5.709499,8.639380,16.185305,55.061695,-15.915050,41.888203,37.122181,,,
108,0,143.917191,-92.583443,-0.610048,52.458038,-32.203003,55.913662,92.498497,-143.817810,5.708340,8.600935,16.187181,55.084919,-15.916349,41.881058,37.115662,,,
109,0,143.936478,-92.572334,-0.605880,52.438805,-32.188610,55.903042,92.403801,-143.699661,5.651060,8.619969,16.200766,55.093384,-15.943648,41.908199,37.132782,,,
110,0,143.956085,-92.556335,-0.598023,52.448383,-32.176723,55.924374,92.457291,-143.676529,5.706665,8.624948,16.213692,55.100361,-15.923578,41.919151,37.146500,,,
111,0,143.970245,-92.548538,-0.584963,52.451351,-32.179211,55.931351,92.456345,-143.682159,5.701619,8.619902,16.223385,55.123581,-15.931485,41.916466,37.144859,,,
112,0,143.947769,-92.516899,-0.595307,52.484760,-32.157703,55.929619,92.468765,-143.574936,5.644223,8.608871,16.233952,55.131893,-15.958485,41.927761,37.155224,,,
113,0,143.965759,-92.473083,-0.601773,52.453999,-32.149220,55.937012,92.519485,-143.568924,5.684577,8.624572,16.258352,55.115379,-15.929779,41.943668,37.160465,,,
114,0,143.985764,-92.468102,-0.592404,52.458447,-32.125618,55.929264,92.520157,-143.564941,5.688131,8.610899,16.239971,55.110291,-15.907190,41.932899,37.148258,,,
115,0,143.982681,-92.458160,-0.615003,52.453140,-32.120869,55.933529,92.521751,-143.555420,5.696665,8.617131,16.274029,55.108616,-15.896104,41.932236,37.141438,,,
116,0,143.970459,-92.521049,-0.566265,52.484875,-32.139870,55.980755,92.572098,-143.550354,5.736016,8.623320,16.255581,55.121025,-15.899252,41.932461,37.147964,,,
117,0,143.946686,-92.529198,-0.593755,52.506878,-32.094086,55.999798,92.435089,-143.577759,5.767828,8.639802,16.273308,55.132404,-15.881475,41.940750,37.156010,,,
118,0,143.946487,-92.534615,-0.602644,52.493458,-32.101116,55.979317,92.382286,-143.597397,5.715422,8.666599,16.266018,55.131874,-15.867783,41.961617,37.157104,,,
119,0,143.972733,-92.552246,-0.644935,52.499580,-32.118618,55.980278,92.509911,-143.659164,5.757176,8.673131,16.278303,55.118225,-15.870018,41.951935,37.154392,,,
120,0,143.950638,-92.585709,-0.676759,52.508450,-32.124893,55.994976,92.510254,-143.711456,5.650372,8.662866,16.273769,55.118073,-15.864233,41.952488,37.150879,,,
121,0,143.938843,-92.596176,-0.659069,52.527287,-32.128174,55.991562,92.635971,-143.784546,5.681994,8.687222,16.283339,55.131516,-15.846487,41.955666,37.153702,,,
122,0,143.918884,-92.673317,-0.666157,52.530418,-32.122261,55.998619,92.552246,-143.848099,5.656205,8.681790,16.279640,55.141148,-15.820151,41.938541,37.161186,,,
123,0,143.921021,-92.710495,-0.700794,52.548058,-32.141079,56.005157,92.551689,-143.851425,5.653220,8.702174,16.275387,55.111790,-15.827587,41.955605,37.159103,,,
124,0,143.909149,-92.715546,-0.744642,52.547356,-32.120888,56.005383,92.552505,-143.846558,5.657597,8.702325,16.281576,55.125095,-15.803247,41.924595,37.138275,,,
125,0,143.871353,-92.724945,-0.780657,52.551888,-32.152889,55.999031,92.497009,-143.881653,5.591291,8.725562,16.282875,55.103786,-15.797359,41.921757,37.147720,,,
126,0,143.866867,-92.827057,-0.852900,52.544373,-32.161335,55.992107,92.413208,-143.943237,5.567427,8.724268,16.254602,55.099716,-15.783740,41.934959,37.146809,,,
127,0,143.849594,-92.816444,-0.924449,52.563557,-32.194328,55.986774,92.412933,-143.944885,5.565939,8.727989,16.214439,55.090076,-15.778290,41.923527,37.121746,,,
128,0,143.806961,-92.843170,-0.973951,52.534042,-32.236996,55.963821,92.466385,-143.976334,5.512836,8.693937,16.197321,55.085930,-15.793102,41.919781,37.140583,,,
129,0,143.731293,-92.861641,-0.988686,52.520039,-32.259731,55.963200,92.340645,-143.957077,5.373091,8.688907,16.188385,55.083595,-15.813380,41.892967,37.129482,,,
130,0,143.733490,-92.878204,-1.044986,52.501934,-32.269760,55.941757,92.414139,-144.046234,5.355513,8.671649,16.181265,55.095570,-15.826921,41.901573,37.131756,,,
131,0,143.700150,-92.886345,-1.079539,52.470505,-32.247433,55.904053,92.288361,-143.973557,5.323517,8.655234,16.173857,55.079426,-15.814632,41.871735,37.141239,,,
132,0,143.672165,-92.846512,-1.153160,52.444477,-32.284061,55.889019,92.343056,-143.998978,5.275691,8.641298,16.152977,55.087444,-15.830194,41.870354,37.138279,,,
133,0,143.651428,-92.829773,-1.162278,52.406120,-32.277313,55.876038,92.341629,-144.007492,5.268080,8.614224,16.138647,55.086128,-15.831449,41.900307,37.150764,,,
134,0,143.624496,-92.798676,-1.183453,52.432640,-32.285507,55.901093,92.351807,-143.913635,5.198696,8.604465,16.159098,55.115379,-15.862353,41.894409,37.157238,,,
135,0,143.633698,-92.773483,-1.169164,52.417767,-32.271793,55.942387,92.350502,-143.921417,5.191737,8.589522,16.169392,55.121719,-15.871549,41.920418,37.167320,,,
136,0,143.638809,-92.735291,-1.140924,52.435097,-32.257839,55.962631,92.350891,-143.919083,5.193837,8.575949,16.158764,55.114048,-15.911835,41.920933,37.156094,,,
137,0,143.673782,-92.663147,-1.138612,52.436153,-32.242382,55.968529,92.361168,-143.765366,5.238163,8.576037,16.182924,55.129688,-15.896819,41.929478,37.151810,,,
138,0,143.670334,-92.613632,-1.131601,52.457054,-32.234070,55.976547,92.362106,-143.759735,5.243196,8.569361,16.216536,55.147842,-15.921329,41.934128,37.185364,,,
139,0,143.713272,-92.562790,-1.071789,52.478878,-32.185596,56.000843,92.362106,-143.759750,5.243170,8.574467,16.240780,55.167267,-15.914213,41.948715,37.182537,,,
140,0,143.784531,-92.503159,-1.086252,52.474178,-32.138371,56.010677,92.446472,-143.696060,5.268818,8.590539,16.258451,55.150654,-15.921520,41.957043,37.201679,,,
141,0,143.802368,-92.468956,-1.053602,52.527985,-32.076733,56.034439,92.586182,-143.652496,5.251460,8.596107,16.262054,55.158791,-15.919693,41.960739,37.184216,,,
142,0,143.844070,-92.396751,-1.033385,52.506607,-32.085022,56.033543,92.460060,-143.581863,5.217641,8.593865,16.288193,55.158310,-15.895577,41.976082,37.200993,,,
143,0,143.848373,-92.372063,-1.011672,52.559628,-32.044392,56.039131,92.459045,-143.587936,5.212213,8.599802,16.268087,55.166267,-15.909508,42.000443,37.195549,,,
144,0,143.867294,-92.371666,-1.026381,52.549965,-32.045464,56.054024,92.598633,-143.546600,5.192762,8.580091,16.268381,55.168987,-15.931945,41.991993,37.208004,,,
145,0,143.901505,-92.365173,-0.991710,52.553581,-32.062485,56.053902,92.650826,-143.531799,5.240959,8.586369,16.263647,55.172527,-15.921753,41.955101,37.211262,,,
146,0,143.905029,-92.368645,-0.984627,52.526562,-32.074444,56.048687,92.650528,-143.533554,5.239394,8.573062,16.259092,55.178139,-15.936548,41.959099,37.200821,,,
147,0,143.922363,-92.378044,-0.959215,52.523491,-32.076824,56.048786,92.597450,-143.499969,5.294417,8.573182,16.229881,55.199543,-15.923265,41.948429,37.204372,,,
148,0,143.918259,-92.375069,-0.990770,52.509640,-32.076530,56.041061,92.650002,-143.536636,5.236623,8.582088,16.215199,55.168922,-15.931808,41.942783,37.202225,,,
149,0,143.917633,-92.370857,-0.996928,52.513306,-32.081367,56.012390,92.545494,-143.513412,5.247443,8.571537,16.205414,55.146587,-15.936131,41.935776,37.198120,,,
150,0,143.917847,-92.370277,-0.997043,52.515018,-32.080681,55.989510,92.460281,-143.580505,5.218856,8.577768,16.212650,55.155613,-15.934851,41.921970,37.193378,,,
151,0,143.921173,-92.371559,-1.015696,52.517067,-32.091984,56.013550,92.546204,-143.563965,5.142367,8.568493,16.216696,55.150768,-15.918923,41.940601,37.191143,,,
152,0,143.885788,-92.381508,-1.024232,52.509304,-32.090820,56.031281,92.460190,-143.635895,5.109472,8.563369,16.201101,55.169273,-15.930334,41.928371,37.200680,,,
153,0,143.881668,-92.432846,-1.051965,52.494507,-32.130157,55.998852,92.513496,-143.613358,5.164486,8.571751,16.206322,55.165745,-15.930154,41.937469,37.192291,,,
154,0,143.865662,-92.467377,-1.062604,52.485023,-32.164093,56.008743,92.461349,-143.629028,5.115612,8.569549,16.199814,55.154804,-15.919762,41.935417,37.178707,,,
155,0,143.831528,-92.459290,-1.102307,52.504372,-32.153030,56.000298,92.566788,-143.647079,5.109226,8.572977,16.206892,55.157581,-15.921248,41.938351,37.201164,,,
156,0,143.790405,-92.499886,-1.120653,52.499523,-32.206146,55.987354,92.514076,-143.666138,5.057343,8.567107,16.195192,55.152378,-15.928630,41.938702,37.192265,,,
157,0,143.741257,-92.549988,-1.198458,52.449009,-32.208351,55.958832,92.322777,-143.722061,5.028807,8.558642,16.192078,55.152092,-15.937153,41.930435,37.192230,,,
158,0,143.743805,-92.585327,-1.214653,52.412407,-32.228649,55.944904,92.249054,-143.689865,4.935550,8.545464,16.157682,55.138817,-15.930405,41.921997,37.180630,,,
159,0,143.719315,-92.676399,-1.241922,52.385868,-32.284908,55.934433,92.112587,-143.714111,4.970199,8.531938,16.141386,55.123493,-15.913874,41.877174,37.176682,,,
160,0,143.695465,-92.687065,-1.247135,52.363014,-32.299759,55.936665,92.166786,-143.742477,4.919745,8.538457,16.129244,55.130341,-15.926803,41.862221,37.173428,,,
161,0,143.659897,-92.701904,-1.265361,52.355850,-32.317314,55.925632,91.977066,-143.790909,4.897546,8.524544,16.096735,55.126991,-15.945079,41.876900,37.194492,,,
162,0,143.616165,-92.761230,-1.270694,52.381298,-32.340168,55.930672,92.102524,-143.865417,4.927888,8.522484,16.084862,55.136478,-15.913270,41.855526,37.174088,,,
163,0,143.630417,-92.823074,-1.302830,52.364140,-32.377357,55.926437,92.101418,-143.872101,4.921929,8.540483,16.096096,55.131134,-15.917035,41.848751,37.174500,,,
164,0,143.610901,-92.831558,-1.307179,52.350624,-32.357327,55.912369,92.155159,-143.901871,4.870308,8.550547,16.106359,55.139332,-15.881395,41.872135,37.175694,,,
165,0,143.594696,-92.833321,-1.311938,52.349987,-32.375786,55.919315,92.156570,-143.839630,4.985945,8.544411,16.102583,55.144321,-15.883041,41.860683,37.199566,,,
166,0,143.575745,-92.851013,-1.324999,52.365185,-32.388229,55.914234,91.964302,-143.900146,4.953167,8.545379,16.110468,55.131920,-15.881330,41.859627,37.179729,,,
167,0,143.576752,-92.877655,-1.323360,52.355011,-32.388134,55.920361,92.017532,-143.933075,4.898725,8.546680,16.089203,55.128674,-15.854232,41.856773,37.164898,,,
168,0,143.559494,-92.901352,-1.319588,52.376122,-32.380348,55.918606,92.156258,-143.895264,4.876195,8.546868,16.089472,55.126392,-15.870528,41.866344,37.155445,,,
169,0,143.554352,-92.943466,-1.309618,52.332321,-32.396801,55.885632,91.965912,-143.944901,4.853221,8.546626,16.108847,55.123959,-15.875049,41.854862,37.143566,,,
170,0,143.525925,-92.914810,-1.300646,52.323963,-32.395081,55.918522,91.966209,-143.943100,4.854845,8.541105,16.086485,55.127876,-15.861847,41.853188,37.173225,,,
171,0,143.529648,-92.922913,-1.281623,52.328629,-32.398285,55.934250,91.964935,-143.950699,4.848038,8.542749,16.090185,55.130234,-15.886292,41.858379,37.159046,,,
172,0,143.538925,-92.915154,-1.242525,52.332577,-32.401680,55.941212,91.966942,-143.938812,4.858694,8.539167,16.093979,55.128654,-15.856450,41.852871,37.166172,,,
173,0,143.539780,-92.950951,-1.191147,52.298683,-32.388222,55.972153,92.018265,-143.928696,4.902639,8.537600,16.097521,55.141788,-15.858380,41.868221,37.148045,,,
174,0,143.542664,-92.953407,-1.180651,52.325863,-32.384178,55.973663,91.879456,-143.966843,4.924847,8.560452,16.131924,55.158741,-15.871037,41.873585,37.184052,,,
175,0,143.529053,-92.976379,-1.149838,52.319324,-32.343521,56.000187,91.827057,-143.929047,4.983639,8.556118,16.139383,55.181396,-15.859299,41.896370,37.167805,,,
176,0,143.576035,-92.922371,-1.080411,52.303307,-32.319881,56.026939,91.828293,-143.921646,4.990271,8.538675,16.167839,55.197102,-15.861703,41.906284,37.162926,,,
177,0,143.563873,-92.931824,-1.046384,52.308628,-32.318893,56.060314,91.880867,-143.904648,5.040457,8.553720,16.189312,55.205906,-15.823647,41.933231,37.180195,,,
178,0,143.587250,-92.912544,-0.990683,52.285866,-32.296417,56.078842,91.824348,-143.890076,5.078564,8.551561,16.202307,55.215614,-15.848590,41.931084,37.199780,,,
179,0,143.559448,-92.879684,-0.946316,52.305401,-32.283504,56.123978,92.144028,-143.891327,5.152966,8.547231,16.196541,55.214306,-15.876383,41.927757,37.198936,,,
180,0,143.601593,-92.855629,-0.913576,52.325527,-32.273281,56.123020,91.950600,-143.959869,5.113142,8.543698,16.201868,55.230869,-15.874693,41.945496,37.204071,,,
181,0,143.634659,-92.827179,-0.839884,52.315887,-32.271511,56.144844,91.951752,-143.953003,5.119269,8.546925,16.245424,55.247746,-15.891388,41.958847,37.195435,,,
182,0,143.649643,-92.806328,-0.820029,52.315472,-32.258675,56.172005,91.962952,-143.797501,5.164916,8.531869,16.223722,55.263103,-15.883770,41.939140,37.209015,,,
183,0,143.677795,-92.802681,-0.763931,52.304478,-32.244999,56.195801,91.963379,-143.794876,5.167268,8.535851,16.235222,55.270962,-15.865412,41.958191,37.215633,,,
184,0,143.675781,-92.776459,-0.690239,52.316135,-32.234890,56.229561,91.908684,-143.769470,5.215089,8.507133,16.222155,55.265751,-15.919248,41.938549,37.198532,,,
185,0,143.714752,-92.751640,-0.636861,52.311401,-32.218376,56.216122,92.099380,-143.717194,5.240350,8.513402,16.235291,55.288994,-15.878059,41.976974,37.205078,,,
186,0,143.729156,-92.759178,-0.621494,52.311050,-32.215378,56.228848,92.099892,-143.714142,5.243075,8.524749,16.258253,55.285450,-15.900534,41.937355,37.187454,,,
187,0,143.784332,-92.690994,-0.539786,52.309315,-32.219456,56.252377,92.225357,-143.788681,5.273400,8.516265,16.259796,55.287861,-15.904616,41.954300,37.204487,,,
188,0,143.772385,-92.681488,-0.510260,52.290012,-32.156357,56.289806,92.223976,-143.743164,5.374091,8.495420,16.293400,55.297047,-15.896274,41.937881,37.198830,,,
189,0,143.787384,-92.670242,-0.509513,52.312786,-32.166359,56.292461,92.362640,-143.702744,5.354131,8.505754,16.266418,55.296272,-15.896223,41.962639,37.189514,,,
190,0,143.807831,-92.657143,-0.460230,52.300449,-32.142918,56.311420,92.361290,-143.710846,5.346875,8.503310,16.306669,55.304932,-15.896021,41.972637,37.197800,,,
191,0,143.786545,-92.670937,-0.429326,52.303268,-32.135624,56.333256,92.308502,-143.675491,5.403503,8.494571,16.336231,55.327602,-15.899997,41.983524,37.197655,,,
192,0,143.796463,-92.653831,-0.391854,52.313496,-32.117695,56.384068,92.224304,-143.686890,5.484320,8.497830,16.342312,55.337475,-15.921140,42.019444,37.229015,,,
193,0,143.797699,-92.633438,-0.381294,52.305584,-32.104000,56.359474,92.296455,-143.727875,5.569754,8.500119,16.348007,55.343498,-15.923839,42.019043,37.234764,,,
194,0,143.787704,-92.635559,-0.374561,52.290466,-32.119789,56.363152,92.299431,-143.710114,5.585653,8.501582,16.347477,55.338535,-15.923863,42.025074,37.207901,,,
195,0,143.812531,-92.666939,-0.367724,52.268650,-32.135689,56.372425,92.170311,-143.657333,5.535863,8.505809,16.353148,55.328884,-15.920062,42.019283,37.215187,,,
196,0,143.786926,-92.640892,-0.347654,52.268303,-32.135777,56.372257,92.173424,-143.638733,5.552502,8.495328,16.349524,55.343266,-15.916318,42.022606,37.214783,,,
197,0,143.768967,-92.648315,-0.351176,52.256485,-32.140209,56.362617,92.223389,-143.692337,5.479439,8.497020,16.343285,55.328259,-15.924212,41.994751,37.196712,,,
198,0,143.776733,-92.673271,-0.376182,52.232304,-32.159409,56.313255,92.224876,-143.683487,5.487355,8.491647,16.314781,55.323322,-15.929492,41.992970,37.206120,,,
199,0,143.758453,-92.706841,-0.352334,52.245193,-32.170410,56.321007,91.960289,-143.648926,5.477628,8.472535,16.271524,55.318550,-15.913233,41.961620,37.192413,,,
200,0,143.766785,-92.723457,-0.348925,52.264568,-32.191513,56.353741,92.086792,-143.717316,5.513430,8.480381,16.252607,55.327343,-15.909681,41.937008,37.219677,,,
201,0,143.788223,-92.797485,-0.315372,52.254215,-32.201572,56.393021,91.981842,-143.695724,5.522936,8.489589,16.246296,55.346035,-15.916750,41.924572,37.229923,,,
202,0,143.813004,-92.853149,-0.284966,52.261063,-32.268764,56.380375,91.950562,-143.740036,5.549439,8.495070,16.215549,55.339260,-15.916846,41.897850,37.250916,,,
203,0,143.801193,-92.879036,-0.277140,52.297947,-32.305344,56.379215,91.899277,-143.750046,5.505591,8.497779,16.215664,55.359592,-15.913322,41.882530,37.262566,,,
204,0,143.761032,-92.929276,-0.291342,52.267994,-32.326748,56.381943,91.897728,-143.759247,5.497343,8.492637,16.208738,55.354126,-15.912706,41.893295,37.257336,,,
205,0,143.736847,-92.927307,-0.283152,52.265118,-32.333679,56.373219,92.075500,-143.817749,5.576908,8.473556,16.230064,55.326187,-15.923055,41.915829,37.223618,,,
206,0,143.719406,-92.890800,-0.319685,52.242760,-32.300968,56.353592,92.024055,-143.828674,5.532241,8.500172,16.219355,55.333019,-15.925472,41.942757,37.233627,,,
207,0,143.686417,-92.926575,-0.380230,52.228199,-32.321724,56.329849,92.024078,-143.828506,5.532384,8.493827,16.212679,55.289745,-15.889853,41.934135,37.198879,,,
208,0,143.684433,-92.953209,-0.391588,52.239220,-32.341091,56.329956,92.065102,-143.967209,5.536635,8.513389,16.218004,55.293465,-15.885478,41.923454,37.199272,,,
209,0,143.686127,-92.956467,-0.399637,52.203243,-32.369125,56.333820,92.011864,-143.988266,5.482827,8.500227,16.192854,55.308205,-15.880006,41.921822,37.234425,,,
210,0,143.642487,-92.979149,-0.430233,52.199677,-32.389771,56.341381,92.012535,-143.984253,5.486413,8.490949,16.179285,55.296650,-15.874286,41.898010,37.223789,,,
211,0,143.622223,-92.986160,-0.435308,52.173786,-32.401585,56.304111,92.011154,-143.992493,5.479048,8.496735,16.176689,55.278751,-15.872568,41.881607,37.208256,,,
212,0,143.642319,-93.034737,-0.440801,52.197124,-32.393105,56.314697,92.067299,-144.007874,5.440296,8.489517,16.172564,55.288525,-15.863831,41.869457,37.178150,,,
213,0,143.649353,-93.059822,-0.445036,52.183548,-32.403431,56.293121,92.012398,-144.039993,5.376738,8.501161,16.157520,55.268757,-15.874520,41.869495,37.213421,,,
214,0,143.633530,-93.042686,-0.472795,52.192585,-32.401066,56.307755,92.011688,-144.044174,5.372991,8.505623,16.152519,55.282429,-15.871464,41.871696,37.194668,,,
215,0,143.609680,-93.091385,-0.468757,52.190582,-32.386181,56.312286,92.067535,-144.062820,5.331238,8.493547,16.160208,55.294758,-15.865685,41.858505,37.216270,,,
216,0,143.609879,-93.098831,-0.477658,52.206993,-32.409435,56.316113,91.928596,-144.100189,5.354230,8.517342,16.162985,55.288399,-15.870750,41.855148,37.218597,,,
217,0,143.601685,-93.111404,-0.504845,52.212460,-32.406147,56.306740,91.874199,-144.072937,5.403718,8.521840,16.160606,55.286045,-15.847294,41.870567,37.191063,,,
218,0,143.601059,-93.106461,-0.504575,52.194176,-32.392479,56.328056,91.928619,-144.100021,5.354387,8.519173,16.157059,55.295376,-15.840238,41.851307,37.208595,,,
219,0,143.605087,-93.114944,-0.512418,52.211319,-32.412846,56.322975,91.929688,-144.093613,5.360110,8.516850,16.150072,55.281559,-15.840476,41.851425,37.206360,,,
220,0,143.620392,-93.127457,-0.510328,52.238384,-32.449764,56.309006,91.928490,-144.100800,5.353679,8.522992,16.150282,55.302208,-15.841305,41.846474,37.217873,,,
221,0,143.632751,-93.175285,-0.524962,52.240173,-32.455601,56.301506,91.928513,-144.100693,5.353780,8.545367,16.110437,55.300472,-15.832236,41.832397,37.202824,,,
222,0,143.622482,-93.186806,-0.582183,52.224850,-32.468262,56.294785,91.981071,-144.138229,5.295159,8.529966,16.073023,55.289642,-15.816747,41.826439,37.201962,,,
223,0,143.616699,-93.157227,-0.632294,52.218067,-32.479580,56.281025,91.979736,-144.146210,5.288039,8.520457,16.071703,55.270500,-15.833516,41.807335,37.178074,,,
224,0,143.617889,-93.157310,-0.632031,52.230934,-32.486546,56.258049,92.035049,-144.167984,5.243452,8.509410,16.050762,55.270386,-15.820626,41.771370,37.174419,,,
225,0,143.619431,-93.186119,-0.631060,52.222130,-32.505219,56.230320,91.983177,-144.181976,5.196108,8.523246,16.050806,55.269119,-15.806519,41.784782,37.190636,,,
226,0,143.638580,-93.183418,-0.625473,52.226002,-32.508766,56.238098,91.982437,-144.186356,5.192185,8.519686,16.038446,55.280281,-15.829153,41.759586,37.177269,,,
227,0,143.654083,-93.195435,-0.672060,52.221668,-32.506126,56.230541,91.908340,-144.155838,5.097503,8.524550,16.016645,55.273487,-15.819693,41.780941,37.224876,,,
228,0,143.631592,-93.154755,-0.676399,52.222813,-32.511681,56.223881,91.855095,-144.123047,5.151829,8.523788,16.026178,55.279591,-15.840536,41.771378,37.201721,,,
229,0,143.618179,-93.166435,-0.727663,52.225636,-32.503563,56.206841,91.803627,-144.133469,5.107545,8.525488,16.028965,55.270653,-15.826833,41.770443,37.194469,,,
230,0,143.619537,-93.170296,-0.769911,52.244110,-32.534622,56.220158,91.853920,-144.183929,5.037412,8.529284,16.021933,55.270409,-15.832303,41.758602,37.176834,,,
231,0,143.601730,-93.156044,-0.777589,52.225075,-32.556576,56.200886,91.855789,-144.172745,5.047430,8.511403,16.002520,55.273426,-15.832152,41.756950,37.177284,,,
232,0,143.596573,-93.159416,-0.766080,52.233826,-32.556873,56.220242,91.856445,-144.168808,5.050927,8.513311,16.007330,55.266453,-15.848696,41.759888,37.216259,,,
233,0,143.564453,-93.173332,-0.767245,52.213398,-32.573353,56.203362,91.855095,-144.176865,5.043726,8.518749,16.011063,55.284821,-15.840724,41.733669,37.179871,,,
234,0,143.566437,-93.167465,-0.757703,52.221657,-32.558765,56.200901,91.858566,-144.156128,5.062272,8.509194,16.001015,55.264652,-15.857593,41.747398,37.181053,,,
235,0,143.566498,-93.167587,-0.757350,52.222210,-32.558388,56.190193,91.856033,-144.171280,5.048722,8.512387,16.005810,55.275551,-15.832659,41.759186,37.179882,,,
236,0,143.581299,-93.164612,-0.753275,52.213772,-32.509434,56.201679,91.856247,-144.169937,5.049924,8.520621,16.017883,55.290077,-15.835097,41.764038,37.223679,,,
237,0,143.599594,-93.157692,-0.750405,52.232128,-32.532158,56.197960,91.856552,-144.168152,5.051522,8.549026,16.043282,55.289200,-15.809966,41.799408,37.212303,,,
238,0,143.603409,-93.157776,-0.770233,52.236134,-32.493538,56.214699,91.981735,-144.244339,5.080363,8.551099,16.046797,55.272697,-15.819859,41.797894,37.190182,,,
239,0,143.640442,-93.144653,-0.771421,52.265537,-32.477444,56.213585,92.912064,-144.077988,5.086581,8.556545,16.043623,55.275814,-15.808811,41.778767,37.205078,,,
240,0,143.658096,-93.137283,-0.785577,52.301041,-32.501068,56.227070,92.120705,-144.206711,5.057581,8.550076,16.040251,55.266499,-15.819483,41.756683,37.223301,,,
241,0,143.671524,-93.126015,-0.768550,52.293369,-32.523663,56.190598,91.857368,-144.163300,5.055877,8.546739,16.025087,55.286114,-15.797462,41.742615,37.196278,,,
242,0,143.672806,-93.134354,-0.776549,52.297321,-32.541569,56.189701,91.941330,-144.157776,4.969450,8.558561,16.027374,55.263714,-15.808260,41.735756,37.215195,,,
243,0,143.679077,-93.147209,-0.777902,52.280964,-32.535461,56.185638,91.940933,-144.160172,4.967325,8.541632,15.973691,55.272499,-15.804019,41.714214,37.190720,,,
244,0,143.691177,-93.160751,-0.801070,52.258343,-32.569096,56.172718,91.803978,-144.185760,5.000868,8.533722,15.991797,55.260101,-15.794015,41.706966,37.193569,,,
245,0,143.663696,-93.170715,-0.835462,52.249905,-32.577274,56.165283,92.437477,-144.137436,4.895496,8.538515,15.950048,55.267757,-15.794584,41.710152,37.185444,,,
246,0,143.669983,-93.184387,-0.782061,52.265522,-32.596272,56.185890,91.940750,-144.214981,4.858323,8.532433,15.959241,55.273060,-15.800759,41.716148,37.206085,,,
247,0,143.682114,-93.205711,-0.774287,52.248692,-32.590813,56.194500,91.801468,-144.200760,4.987464,8.522431,15.951307,55.270031,-15.807529,41.702343,37.181622,,,
248,0,143.663086,-93.229134,-0.772307,52.250969,-32.594028,56.186138,91.804779,-144.180923,5.005192,8.527698,15.954250,55.269585,-15.792333,41.713829,37.185314,,,
249,0,143.663712,-93.180611,-0.771809,52.239658,-32.575375,56.187939,91.749756,-144.212479,4.941990,8.533568,15.960563,55.276886,-15.799502,41.717850,37.209072,,,
250,0,143.640854,-93.170792,-0.749285,52.237019,-32.592503,56.187840,91.751213,-144.203873,4.949711,8.519749,15.973203,55.280289,-15.796974,41.722561,37.211334,,,
251,0,143.621048,-93.197342,-0.745613,52.235748,-32.552437,56.218266,91.802917,-144.192093,4.995203,8.525513,15.983073,55.275005,-15.816806,41.724541,37.203613,,,
252,0,143.619904,-93.197281,-0.747141,52.253529,-32.568855,56.220146,92.015083,-144.190369,5.062279,8.539238,16.017733,55.278893,-15.807731,41.722626,37.189537,,,
253,0,143.645859,-93.200226,-0.727411,52.271122,-32.558262,56.209282,91.930191,-144.255768,5.035231,8.554770,16.014591,55.286808,-15.805716,41.740181,37.203465,,,
254,0,143.659073,-93.175110,-0.742008,52.248150,-32.553368,56.228951,91.930061,-144.256546,5.034537,8.541714,16.018660,55.281700,-15.806292,41.734596,37.209549,,,
255,0,143.651184,-93.188614,-0.700352,52.278744,-32.529049,56.237232,91.942200,-144.152618,4.974090,8.553610,16.012005,55.300488,-15.810708,41.732292,37.215363,,,
256,0,143.663391,-93.178680,-0.715540,52.250534,-32.539272,56.232624,91.929878,-144.257675,5.033530,8.535724,16.014320,55.278679,-15.810918,41.732365,37.210194,,,
257,0,143.679962,-93.185524,-0.707569,52.265377,-32.567928,56.232277,91.803955,-144.185867,5.000769,8.553566,16.013304,55.287876,-15.804986,41.723866,37.190842,,,
258,0,143.629547,-93.215805,-0.705502,52.234634,-32.591450,56.216637,91.803497,-144.188538,4.998377,8.532087,16.002903,55.289677,-15.812473,41.725697,37.205208,,,
259,0,143.645920,-93.238434,-0.708393,52.227863,-32.589676,56.230946,91.802086,-144.197037,4.990794,8.521188,15.970776,55.289951,-15.802681,41.722473,37.222366,,,
260,0,143.594955,-93.227470,-0.714664,52.199993,-32.594898,56.227455,91.804382,-144.183273,5.003087,8.519245,15.967846,55.285316,-15.822057,41.721127,37.208126,,,
261,0,143.597137,-93.261436,-0.712429,52.190502,-32.590912,56.222477,91.665016,-144.224854,5.022242,8.519294,15.958430,55.293751,-15.810480,41.721031,37.211639,,,
262,0,143.568481,-93.306366,-0.674064,52.191631,-32.578583,56.248455,91.666130,-144.218124,5.028260,8.524953,15.967533,55.298542,-15.793986,41.719727,37.222198,,,
263,0,143.568680,-93.306061,-0.645085,52.186001,-32.591820,56.262272,91.789696,-144.304016,5.048398,8.516236,15.952304,55.288818,-15.800016,41.707478,37.232807,,,
264,0,143.553268,-93.343040,-0.644597,52.194733,-32.613964,56.283619,91.841560,-144.290665,5.095241,8.518653,15.955046,55.308483,-15.802115,41.707161,37.229713,,,
265,0,143.556656,-93.349838,-0.638058,52.169811,-32.604118,56.296597,91.791359,-144.294067,5.057304,8.511709,15.952606,55.320335,-15.814029,41.705601,37.220219,,,
266,0,143.556168,-93.349060,-0.638191,52.189320,-32.610001,56.275444,91.652252,-144.334061,5.077863,8.526466,15.965087,55.297966,-15.810775,41.698349,37.228302,,,
267,0,143.537109,-93.370834,-0.635479,52.175697,-32.627575,56.280155,91.652702,-144.331375,5.080254,8.517099,15.955024,55.293339,-15.794883,41.710503,37.208355,,,
268,0,143.542297,-93.411293,-0.613762,52.161400,-32.638790,56.271618,91.651382,-144.339264,5.073199,8.514166,15.960369,55.286816,-15.805546,41.701866,37.205528,,,
269,0,143.542786,-93.411980,-0.613685,52.160027,-32.639828,56.272182,91.651131,-144.340744,5.071893,8.517846,15.952558,55.303692,-15.799614,41.703636,37.200417,,,
270,0,143.522461,-93.419403,-0.617762,52.155956,-32.651363,56.265881,91.775932,-144.419220,5.098656,8.514963,15.944069,55.298664,-15.796194,41.701065,37.207901,,,
271,0,143.545303,-93.438179,-0.596879,52.147064,-32.657131,56.261955,91.704842,-144.370834,5.019974,8.516252,15.955523,55.297997,-15.809083,41.676472,37.234573,,,
272,0,143.546951,-93.440208,-0.596217,52.167267,-32.667725,56.272758,91.651123,-144.340820,5.071829,8.509237,15.946566,55.320019,-15.809754,41.694649,37.222462,,,
273,0,143.545029,-93.449913,-0.600760,52.146194,-32.700821,56.268734,91.830322,-144.445251,5.050389,8.504496,15.944328,55.317585,-15.808018,41.697353,37.225086,,,
274,0,143.527176,-93.478188,-0.601671,52.155842,-32.677708,56.285351,91.830559,-144.443848,5.051645,8.516218,15.946979,55.304573,-15.804408,41.700153,37.223122,,,
275,0,143.526932,-93.471687,-0.558363,52.147915,-32.681671,56.291157,91.652267,-144.333954,5.077948,8.509456,15.942927,55.300667,-15.804054,41.710712,37.225285,,,
276,0,143.533554,-93.508766,-0.548743,52.154354,-32.671753,56.301872,91.652046,-144.335297,5.076755,8.504187,15.948251,55.320503,-15.814013,41.697128,37.213219,,,
277,0,143.512619,-93.532082,-0.546643,52.144508,-32.680805,56.289909,91.703636,-144.323578,5.122146,8.505353,15.937506,55.332085,-15.814081,41.677814,37.215748,,,
278,0,143.497009,-93.527359,-0.531899,52.143845,-32.679909,56.289436,91.651100,-144.340942,5.071702,8.515147,15.955688,55.313694,-15.791952,41.705940,37.207249,,,
279,0,143.493210,-93.539864,-0.550310,52.133873,-32.666809,56.274181,91.512802,-144.376038,5.096634,8.521014,15.954860,55.305439,-15.794420,41.686012,37.187420,,,
280,0,143.478821,-93.540276,-0.554452,52.115929,-32.688206,56.291851,91.639450,-144.443451,5.133315,8.511347,15.953939,55.318287,-15.801577,41.678860,37.227673,,,
281,0,143.489594,-93.542656,-0.504576,52.136700,-32.699623,56.297203,91.637146,-144.457230,5.120986,8.499337,15.936768,55.325188,-15.815990,41.666100,37.222313,,,
282,0,143.500290,-93.549255,-0.531960,52.127636,-32.694576,56.314030,91.584457,-144.421036,5.178358,8.502769,15.930787,55.329754,-15.809323,41.698769,37.226360,,,
283,0,143.488052,-93.558220,-0.517502,52.127659,-32.709782,56.300617,91.637245,-144.456635,5.121525,8.505881,15.940895,55.335918,-15.806064,41.679630,37.233692,,,
284,0,143.489380,-93.544136,-0.476439,52.129257,-32.709026,56.308586,91.639297,-144.444443,5.132447,8.515340,15.918329,55.328747,-15.812405,41.669796,37.240822,,,
285,0,143.513092,-93.539619,-0.453854,52.128517,-32.710880,56.301910,91.584961,-144.471863,5.072934,8.492660,15.927000,55.333420,-15.817087,41.661121,37.229607,,,
286,0,143.496948,-93.567368,-0.438083,52.124870,-32.694378,56.352047,91.639267,-144.444595,5.132291,8.507569,15.911126,55.328274,-15.822010,41.663174,37.240917,,,
287,0,143.498856,-93.597633,-0.435843,52.111153,-32.720169,56.329346,91.585533,-144.468460,5.075988,8.507013,15.888136,55.332809,-15.814342,41.657898,37.220375,,,
288,0,143.498169,-93.597252,-0.435981,52.110996,-32.719761,56.329647,91.532700,-144.433121,5.132574,8.498890,15.930555,55.340199,-15.804324,41.673347,37.211636,,,
289,0,143.496460,-93.566719,-0.437946,52.101742,-32.700676,56.336006,91.448364,-144.442993,5.215067,8.488307,15.923727,55.336205,-15.825698,41.651772,37.207909,,,
290,0,143.509232,-93.581772,-0.399367,52.097786,-32.693642,56.348579,91.584663,-144.419876,5.179402,8.480257,15.898520,55.328663,-15.834318,41.663612,37.221748,,,
291,0,143.490402,-93.559578,-0.357152,52.097797,-32.697392,56.355797,91.459053,-144.346191,5.148324,8.472690,15.925748,55.342720,-15.832726,41.648476,37.225689,,,
292,0,143.512955,-93.587883,-0.330137,52.099548,-32.704517,56.371567,91.501251,-144.423599,5.267303,8.485016,15.934948,55.350674,-15.819534,41.662712,37.210144,,,
293,0,143.516174,-93.542503,-0.307029,52.105793,-32.691998,56.392769,91.639160,-144.390839,5.240291,8.464742,15.926897,55.346569,-15.822477,41.654533,37.196663,,,
294,0,143.532455,-93.527328,-0.272429,52.120449,-32.693684,56.417137,91.499802,-144.432236,5.259588,8.455297,15.919617,55.342365,-15.839711,41.641376,37.227329,,,
295,0,143.541428,-93.560066,-0.262149,52.123455,-32.684643,56.438820,91.531006,-144.388062,5.232937,8.467004,15.914239,55.348751,-15.839311,41.645565,37.234322,,,
296,0,143.540298,-93.530220,-0.263502,52.130196,-32.701057,56.427959,91.572510,-144.469696,5.348137,8.469164,15.919188,55.349308,-15.839516,41.647991,37.237476,,,
297,0,143.531784,-93.525139,-0.272371,52.156620,-32.678089,56.428833,91.585487,-144.359192,5.293684,8.456010,15.920058,55.342873,-15.830417,41.649025,37.184608,,,
298,0,143.552170,-93.502686,-0.274637,52.143745,-32.698757,56.403370,91.640266,-144.384262,5.246158,8.461222,15.907790,55.344345,-15.855332,41.645348,37.199463,,,
299,0,143.538284,-93.510841,-0.252067,52.134113,-32.706795,56.401138,91.585106,-144.361420,5.291672,8.459106,15.884133,55.344601,-15.855452,41.648235,37.202904,,,
300,0,143.565323,-93.458176,-0.229689,52.119953,-32.705635,56.445778,91.583122,-144.373291,5.281051,8.441828,15.879201,55.342175,-15.852635,41.653385,37.223682,,,
301,0,143.565094,-93.510513,-0.217261,52.131573,-32.704948,56.431999,91.690567,-144.380814,5.284223,8.448018,15.883468,55.358528,-15.854859,41.643929,37.212402,,,
302,0,143.586258,-93.490532,-0.212517,52.120773,-32.717621,56.421413,91.637131,-144.402924,5.229472,8.435238,15.886363,55.362701,-15.827865,41.632568,37.207684,,,
303,0,143.589539,-93.515419,-0.187095,52.126202,-32.700092,56.459370,91.638695,-144.393646,5.237761,8.463795,15.881792,55.363720,-15.830949,41.635078,37.195873,,,
304,0,143.570358,-93.523499,-0.190949,52.136177,-32.707893,56.427654,91.636963,-144.403976,5.228517,8.458825,15.898954,55.356476,-15.842404,41.635406,37.235001,,,
305,0,143.631073,-93.491478,-0.182810,52.142826,-32.704697,56.433517,91.639542,-144.333405,5.351708,8.466134,15.909031,55.356228,-15.827460,41.617466,37.204464,,,
306,0,143.571869,-93.517708,-0.180480,52.142796,-32.703175,56.432289,91.765289,-144.461411,5.274143,8.484997,15.869901,55.348438,-15.830595,41.616379,37.192089,,,
307,0,143.570267,-93.524612,-0.190673,52.126534,-32.706490,56.416763,91.709541,-144.442169,5.316426,8.451521,15.886899,55.344791,-15.828391,41.633087,37.190254,,,
308,0,143.575470,-93.523834,-0.167122,52.125385,-32.707047,56.416504,91.582520,-144.376907,5.277831,8.444687,15.879061,55.337204,-15.845047,41.622066,37.200573,,,
309,0,143.587646,-93.523804,-0.185914,52.106125,-32.696251,56.394073,91.639336,-144.389832,5.241180,8.451890,15.858494,55.334942,-15.837234,41.633865,37.207012,,,
310,0,143.613724,-93.537880,-0.174836,52.107719,-32.720764,56.399021,91.639565,-144.388458,5.242412,8.433572,15.840962,55.321945,-15.845740,41.563618,37.188587,,,
311,0,143.613937,-93.531113,-0.165658,52.111664,-32.741177,56.406334,91.637794,-144.398972,5.232998,8.447071,15.827062,55.332649,-15.846036,41.563133,37.168110,,,
312,0,143.635223,-93.516815,-0.177030,52.097752,-32.744308,56.395893,91.763420,-144.472580,5.264134,8.442168,15.822313,55.316391,-15.848490,41.557854,37.181923,,,
313,0,143.672699,-93.541016,-0.161271,52.109459,-32.788651,56.371117,91.764465,-144.466354,5.269703,8.439691,15.812518,55.319523,-15.863251,41.542500,37.176071,,,
314,0,143.656326,-93.508362,-0.161953,52.123405,-32.793674,56.380501,91.890488,-144.537598,5.302963,8.436973,15.779712,55.304817,-15.851598,41.531525,37.174316,,,
315,0,143.673981,-93.498901,-0.158267,52.128155,-32.776897,56.380478,91.890068,-144.540131,5.300694,8.417289,15.771847,55.301361,-15.847620,41.551155,37.152527,,,
316,0,143.672638,-93.504692,-0.168026,52.128468,-32.770374,56.364849,91.890495,-144.537506,5.303036,8.420249,15.774712,55.301781,-15.855844,41.532314,37.180611,,,
317,0,143.679276,-93.514618,-0.198686,52.119862,-32.802917,56.344719,91.889641,-144.542633,5.298458,8.414963,15.774420,55.290215,-15.863832,41.526669,37.174728,,,
318,0,143.660492,-93.488144,-0.207243,52.109932,-32.784847,56.327427,91.711792,-144.484497,5.218590,8.411885,15.771813,55.273746,-15.880821,41.536240,37.154091,,,
319,0,143.642136,-93.476181,-0.209634,52.110962,-32.772621,56.319477,91.711449,-144.486511,5.216769,8.410477,15.769620,55.283787,-15.889347,41.527271,37.164654,,,
320,0,143.644852,-93.474548,-0.188473,52.100693,-32.759499,56.355808,91.837761,-144.555969,5.251620,8.399430,15.765645,55.297619,-15.888517,41.538761,37.137798,,,
321,0,143.649200,-93.483597,-0.169729,52.077602,-32.756767,56.369156,91.711990,-144.483276,5.219671,8.403653,15.771493,55.300125,-15.902305,41.530159,37.194599,,,
322,0,143.660965,-93.492355,-0.147220,52.078163,-32.750301,56.353119,91.837196,-144.559341,5.248615,8.394706,15.786120,55.299179,-15.894614,41.533638,37.190266,,,
323,0,143.665817,-93.478844,-0.127030,52.076778,-32.731113,56.377861,91.888260,-144.550919,5.291038,8.366532,15.764404,55.278915,-15.890911,41.554646,37.158962,,,
324,0,143.645966,-93.481514,-0.094018,52.071381,-32.726524,56.402363,91.696823,-144.551147,5.372263,8.377799,15.808221,55.320374,-15.915982,41.547230,37.147308,,,
325,0,143.614471,-93.443199,-0.072926,52.053802,-32.720711,56.403141,91.698143,-144.543228,5.379328,8.365063,15.796408,55.319557,-15.921811,41.550442,37.181377,,,
326,0,143.633408,-93.476784,-0.028820,52.052124,-32.715866,56.410191,91.624741,-144.454773,5.396449,8.335350,15.807414,55.316185,-15.938085,41.559826,37.167477,,,
327,0,143.640793,-93.448395,-0.021772,52.055489,-32.705284,56.431767,91.748497,-144.539520,5.417623,8.347874,15.822586,55.322212,-15.931690,41.579655,37.194527,,,
328,0,143.643646,-93.434868,0.024878,52.069576,-32.677921,56.464130,91.697800,-144.490829,5.486219,8.350084,15.827308,55.306694,-15.918521,41.590000,37.149220,,,
329,0,143.645767,-93.410385,0.036203,52.060753,-32.629253,56.470749,91.697220,-144.494247,5.483158,8.357512,15.858521,55.312260,-15.954844,41.621677,37.193253,,,
330,0,143.645172,-93.403992,0.045106,52.073124,-32.617138,56.478027,91.749939,-144.530930,5.425298,8.362119,15.863309,55.315365,-15.936871,41.619087,37.183773,,,
331,0,143.642670,-93.384407,0.065451,52.093559,-32.603531,56.481018,91.875343,-144.609070,5.452777,8.346119,15.850812,55.316547,-15.960082,41.612415,37.170025,,,
332,0,143.645767,-93.377518,0.055595,52.042416,-32.623177,56.474995,91.875160,-144.554581,5.561380,8.337688,15.843475,55.307728,-15.960326,41.592064,37.191437,,,
333,0,143.651199,-93.335999,0.070956,52.043190,-32.642796,56.474655,91.750908,-144.469528,5.540094,8.314194,15.836589,55.298561,-15.967324,41.606495,37.206173,,,
334,0,143.649902,-93.349220,0.060419,52.023483,-32.666817,56.447945,91.889793,-144.486603,5.408627,8.298019,15.799458,55.294521,-15.988547,41.573338,37.190311,,,
335,0,143.690964,-93.309517,0.084030,51.987255,-32.700523,56.435654,91.889572,-144.487869,5.407502,8.285292,15.773881,55.264469,-15.999859,41.553558,37.194565,,,
336,0,143.672501,-93.328125,0.124682,51.991203,-32.747429,56.430439,92.013779,-144.573273,5.428484,8.266065,15.735658,55.277115,-15.995813,41.524460,37.184544,,,
337,0,143.700562,-93.355774,0.165006,51.981781,-32.753300,56.406509,92.066803,-144.552444,5.481949,8.272036,15.737711,55.235069,-16.017305,41.527355,37.179260,,,
338,0,143.730133,-93.348015,0.258730,51.976612,-32.729607,56.428291,92.054642,-144.654861,5.543259,8.268895,15.730930,55.231186,-16.014402,41.526596,37.173462,,,
339,0,143.708801,-93.374886,0.383003,51.929779,-32.692959,56.438091,92.001305,-144.621948,5.597719,8.253754,15.750572,55.207001,-16.014282,41.534973,37.130589,,,
340,0,143.670624,-93.388939,0.528707,51.920208,-32.672741,56.540283,92.115707,-144.737839,5.804362,8.237070,15.771600,55.240002,-16.038095,41.559067,37.136864,,,
341,0,143.685974,-93.384460,0.718850,51.847572,-32.598301,56.600475,92.102303,-144.797104,5.964609,8.212753,15.831696,55.241848,-16.030041,41.604355,37.147831,,,
342,0,143.643265,-93.376411,0.979712,51.799053,-32.533733,56.721203,92.034286,-144.829803,6.173593,8.220939,15.910297,55.287296,-16.034765,41.695759,37.150814,,,
343,0,143.557648,-93.380707,1.438998,51.698460,-32.415863,56.943153,92.158585,-144.745895,6.525346,8.163141,16.023094,55.361290,-16.088736,41.801983,37.162903,,,
344,0,143.462479,-93.344208,2.134966,51.585194,-32.246357,57.350422,92.261971,-144.658524,7.213197,8.083572,16.218277,55.465153,-16.148516,41.927677,37.186291,,,
345,0,143.409058,-93.306099,3.383139,51.459244,-31.945206,57.944141,92.610176,-144.678436,8.272110,8.018862,16.480116,55.665154,-16.155449,42.122742,37.236351,,,
346,0,143.457184,-93.199745,4.925184,51.364723,-31.517990,58.782188,92.775238,-144.538040,9.675637,7.989594,16.845678,55.910355,-16.148699,42.353756,37.290916,,,
347,0,143.667389,-93.022072,7.054247,51.308422,-30.861921,59.840965,93.310097,-144.568008,11.978623,8.001451,17.353664,56.191551,-16.066864,42.687035,37.333469,,,
348,0,144.069397,-92.588829,9.585455,51.407162,-30.055382,61.134224,94.036781,-144.342392,14.683755,8.140576,18.113728,56.607052,-15.852252,43.117985,37.383465,,,
349,0,144.763443,-91.939735,12.611186,51.711514,-29.096239,62.874153,95.055443,-143.900925,17.883415,8.244691,18.846905,57.230404,-15.589112,43.547558,37.551010,,,
350,0,145.738342,-91.008606,15.684094,52.404110,-27.782328,64.941216,96.355019,-143.177414,21.130239,8.604081,19.877735,58.392239,-15.195560,44.016163,38.341278,,,
351,0,146.904312,-89.687241,18.808912,53.557121,-26.267015,67.438889,97.845627,-142.063705,24.428982,9.491833,21.014515,60.957432,-14.545281,44.997845,41.572086,,,
352,0,148.170624,-88.093803,21.853882,55.084404,-24.643658,70.646324,99.436607,-140.677917,27.647875,10.564272,21.970520,65.016953,-13.693372,46.092079,46.321152,,,
353,0,149.500854,-86.131943,24.898870,56.953659,-22.872477,74.612106,101.091515,-138.923676,30.866791,12.088835,23.235910,70.311325,-12.699545,47.474716,52.449619,,,
354,0,150.939453,-83.987717,28.357786,58.669121,-21.326818,79.488571,102.854752,-136.987106,34.499630,13.649624,24.497120,76.150841,-11.499906,48.782864,58.818081,,,
355,0,152.614685,-81.464569,32.393864,60.258297,-19.877998,85.213364,104.854630,-134.671555,38.709629,15.329103,26.259636,82.597168,-10.097813,50.445564,65.660042,,,
356,0,154.476379,-78.531509,37.166187,62.118916,-17.945553,91.314224,107.113846,-131.929703,42.618080,17.025991,28.110754,89.543518,-8.646903,52.352680,72.936234,,,
357,0,156.687454,-75.422462,42.642570,64.071724,-15.917059,97.967972,109.722435,-129.011826,47.230591,18.904331,30.247629,97.016647,-6.795454,54.640842,80.744904,,,
358,0,159.119095,-71.984161,48.634136,66.098640,-13.545302,104.993484,109.768517,-125.833649,52.411903,21.046549,32.731789,105.008759,-4.463229,57.752460,89.401237,,,
359,0,161.646927,-68.272751,54.986237,68.424339,-10.903360,112.074417,112.119301,-121.883141,56.713219,23.521709,35.533646,113.195183,-1.939323,61.105141,98.139534,,,
360,0,164.287354,-64.311783,61.442913,71.071243,-7.608997,119.261696,114.421638,-117.474716,60.939613,26.500498,39.035229,121.430878,1.192440,65.154114,106.998505,,,
361,0,166.915695,-60.092087,67.834435,73.997581,-3.774524,126.132774,116.957466,-112.619316,65.391342,29.846935,43.326275,129.524033,4.658723,69.774429,115.347878,,,
362,0,169.686905,-55.587299,74.003944,77.147308,0.651839,132.772629,119.034729,-107.331276,70.033829,33.637115,48.248760,136.870895,8.490676,75.075172,123.171349,,,
363,0,172.541199,-50.646660,79.868073,80.439400,5.716181,139.077438,121.763924,-101.748947,74.305695,37.252110,53.705032,143.863495,12.565212,81.157272,130.413773,,,
364,0,175.462875,-45.235615,85.402855,83.865234,11.398713,144.997864,124.393814,-95.472946,78.731148,41.224930,59.858959,150.303101,16.854635,87.640823,136.973831,,,
365,0,178.466644,-39.557331,90.568466,87.335396,17.659544,150.437820,126.459122,-88.530731,83.733643,45.311432,66.642303,156.153748,21.256912,94.817398,142.978409,,,
366,0,181.458878,-33.438839,95.352074,90.875526,24.519974,155.377869,128.587097,-82.179001,87.851715,49.531292,73.990891,161.378448,25.856958,102.542381,148.349304,,,
367,0,184.486099,-27.010015,99.748421,94.444664,31.899984,159.786545,130.785751,-75.181473,91.928261,53.834785,81.924339,165.911804,30.680740,110.985229,152.985580,,,
368,0,187.494110,-20.291878,103.859016,97.979836,39.650360,163.652176,133.206421,-67.526024,95.670715,58.279743,90.382050,169.738464,35.735619,120.061546,156.850327,,,
369,0,190.615997,-13.313969,107.904388,101.453827,47.838215,166.928223,135.267731,-59.950466,99.057274,62.874668,99.346352,172.907669,41.110317,129.570862,159.918610,,,
370,0,193.692535,-6.442125,111.443565,104.903572,56.303265,169.646912,137.487137,-51.611015,101.670128,67.600922,108.768768,175.311096,46.767681,139.525574,162.188400,,,
371,0,196.590668,0.588923,114.827164,108.345337,65.018646,171.786911,140.131866,-42.977524,103.636742,72.462128,118.371971,176.967438,52.807632,149.875931,163.719971,,,
372,0,199.381470,7.550350,117.922714,111.795822,73.890602,173.406189,142.196930,-34.464699,105.459625,77.433876,128.210983,178.054352,58.804787,160.152756,164.550034,,,
373,0,202.111710,14.417942,120.728378,115.287117,82.827576,174.584625,144.157928,-26.189539,106.454292,82.662697,138.219986,178.728470,65.108429,170.697861,164.961639,,,
374,0,204.865402,21.293657,123.141129,118.849594,91.784058,175.307648,146.248611,-18.369911,107.238251,87.667870,147.935196,178.810974,71.318985,180.864685,164.775467,,,
375,0,207.754028,28.040396,125.165550,122.543449,100.681587,175.654938,147.874725,-9.131149,109.664238,92.908989,157.675720,178.605728,77.582039,190.975021,164.278442,,,
376,0,210.580170,34.770519,126.571533,126.422943,109.629631,175.673050,150.479767,-1.493636,110.483833,98.101448,167.210297,178.038055,83.786919,200.808060,163.454620,,,
377,0,213.365906,41.554211,127.455635,130.148102,118.201355,175.201309,152.511673,6.214729,110.998329,103.174805,176.506241,177.120209,89.787758,210.403641,162.328537,,,
378,0,216.002792,48.311916,127.749382,133.947464,126.778023,174.408203,154.426102,13.792055,111.096085,108.261200,185.567276,175.863800,95.694412,219.744781,160.793869,,,
379,0,218.497650,54.918297,127.758369,137.615387,135.107925,173.354065,156.282043,21.147877,111.045212,113.163795,194.400116,174.244720,101.523987,228.792587,158.920822,,,
380,0,220.660782,61.392281,127.397346,141.013184,143.154709,171.988297,158.118195,28.319174,110.873711,117.950500,202.976410,172.310883,107.335602,237.480988,156.684189,,,
381,0,223.013062,67.564400,127.256569,144.236176,150.839111,170.359009,159.895126,35.206860,110.542068,122.540230,211.174271,170.055527,112.954002,245.895828,154.163879,,,
382,0,224.911499,73.394165,126.819191,147.204910,158.223160,168.594269,161.591812,41.883080,109.955963,126.867638,219.024979,167.614868,118.260834,253.787064,151.378281,,,
383,0,226.849228,78.872353,126.535522,150.019775,165.270676,166.631302,163.309494,48.264912,109.029678,130.939331,226.402878,165.031097,123.255814,261.268005,148.518402,,,
384,0,228.691330,84.104958,126.108658,152.731262,171.925583,164.523712,165.028641,54.291397,107.890442,134.715866,233.382980,162.355835,127.829086,268.219208,145.551025,,,
385,0,230.415802,88.985794,125.441910,155.338882,178.167709,162.403366,166.669281,60.006962,106.551758,138.333038,239.870407,159.662598,131.975800,274.671722,142.554703,,,
386,0,231.975906,93.618553,124.561440,157.703873,183.962296,160.261551,168.172424,65.293068,105.252190,141.549438,245.825104,156.969879,135.786987,280.597931,139.530487,,,
387,0,233.410690,97.934387,123.475960,159.995590,189.369171,158.105087,169.534103,70.174492,104.021355,144.512726,251.417603,154.322128,139.224716,286.071075,136.589478,,,
388,0,234.897552,102.000320,122.285950,162.120361,194.347733,155.972092,170.617737,74.595627,102.891312,147.174561,256.515381,151.703979,142.208649,291.059631,133.675690,,,
389,0,235.994324,105.827629,120.572807,164.114517,198.984909,153.795822,171.582642,78.683823,101.854584,149.604126,261.264130,149.090439,144.872253,295.721985,130.801270,,,
390,0,237.269211,109.448997,119.078148,165.951126,203.352921,151.658218,172.402786,82.477890,100.799370,151.764038,265.725159,146.422836,147.217102,300.111145,127.890411,,,
391,0,238.181946,112.787704,117.258354,167.562347,207.596161,149.464600,173.148514,86.059799,99.733887,153.706482,269.894043,143.736313,149.379074,304.165039,124.892311,,,
392,0,238.981461,116.026199,115.672585,168.999191,211.540848,147.205780,173.783798,89.441177,98.608177,155.403671,273.902863,140.944580,151.327530,308.026733,121.837074,,,
393,0,239.707123,119.033951,114.130531,170.194168,215.316818,144.915588,174.357864,92.629715,97.408569,157.012238,277.697449,138.112305,153.150665,311.674927,118.709602,,,
394,0,240.257294,121.893204,112.734291,171.274872,218.925430,142.613037,174.825348,95.687508,96.082527,158.454346,281.266693,135.259140,154.884689,315.186371,115.573341,,,
395,0,240.829132,124.703354,111.517273,172.166763,222.324585,140.279770,175.178787,98.648743,94.648827,159.786316,284.733643,132.356903,156.620071,318.455566,112.468254,,,
396,0,241.115326,127.347473,110.174675,172.872620,225.512619,137.871506,175.488464,101.457085,93.105568,161.007248,287.934570,129.438004,158.251740,321.555206,109.249611,,,
397,0,241.404510,129.747498,108.971176,173.481186,228.558395,135.562973,175.810211,104.117172,91.520378,162.143219,290.989838,126.519325,159.784271,324.473602,106.082939,,,
398,0,241.593826,131.885849,107.608978,174.073624,231.340668,133.281616,176.115311,106.612045,89.959869,163.174881,293.799835,123.722687,161.211792,327.180939,103.051598,,,
399,0,241.827148,134.085419,106.381256,174.595474,233.996979,131.104980,176.349442,109.237801,88.097801,164.096939,296.434998,121.058662,162.477478,329.684265,100.145477,,,
400,0,242.095078,136.046417,105.097679,175.209137,236.419022,129.045044,176.592270,111.277184,86.709465,165.022125,298.881073,118.553711,163.729935,332.007782,97.453896,,,
401,0,242.354401,138.001495,103.734734,175.810150,238.697510,127.060265,176.833420,113.141190,85.429604,165.900970,301.162384,116.181023,164.891373,334.148590,94.856476,,,
402,0,242.613159,139.765396,102.383759,176.385590,240.795197,125.194016,177.075851,114.946228,84.199493,166.783066,303.278076,113.891869,166.002502,336.179474,92.391922,,,
403,0,242.884979,141.427979,100.994606,176.946960,242.788391,123.315338,177.253845,116.619720,82.919670,167.570175,305.250397,111.628990,166.948669,338.035034,89.903168,,,
404,0,243.217667,142.956024,99.631294,177.474655,244.686310,121.471100,177.518738,118.229507,81.714485,168.265671,307.073578,109.275345,167.770554,339.659546,87.260742,,,
405,0,243.492020,144.401459,98.315735,178.005493,246.373642,119.718826,177.822220,119.786407,80.464600,168.871368,308.741974,106.852959,168.478989,341.143372,84.455437,,,
406,0,243.787537,145.721802,96.951698,178.444016,248.011124,117.903427,178.068817,121.132774,79.307198,169.332184,310.300446,104.307083,169.096069,342.390076,81.430832,,,
407,0,244.055481,146.973419,95.584358,178.835281,249.474518,116.118607,178.275589,122.321472,78.119232,169.769852,311.731049,101.647049,169.579361,343.435516,78.307854,,,
408,0,244.340775,148.025482,94.244011,179.163528,250.969620,114.263832,178.546158,123.435913,76.870697,170.121017,313.030243,98.991966,170.024689,344.412567,75.080574,,,
409,0,244.761032,149.105911,92.997627,179.506912,252.273117,112.413712,178.786942,124.464096,75.628952,170.464050,314.186401,96.299408,170.410080,345.170532,71.850891,,,
410,0,244.849594,150.002029,91.399841,179.797012,253.420059,110.563828,178.962784,125.272316,74.474411,170.743256,315.208130,93.564560,170.756454,345.766113,68.565125,,,
411,0,245.157211,150.953369,90.033981,179.901672,254.373856,108.773918,179.246475,126.158699,73.110008,170.765793,316.096436,90.881622,170.810211,346.108002,65.168358,,,
412,0,245.411346,151.580612,88.474434,180.049255,255.225601,107.181442,179.448547,126.773346,71.830704,170.535370,316.716309,88.210030,170.497955,346.141174,61.598061,,,
413,0,245.716202,152.224045,87.014275,180.169891,255.843964,105.803825,179.720123,127.398193,70.559776,169.954376,317.138977,85.657677,169.813721,345.829346,57.825527,,,
414,0,246.108154,152.749237,85.485458,180.222656,256.372528,104.728340,180.000626,127.855568,69.251534,169.284760,317.381927,83.365814,168.980942,345.026672,54.028046,,,
415,0,246.591278,153.252701,83.987236,180.783203,256.477814,104.246719,180.924194,128.391510,67.610802,168.819260,317.399811,81.530434,168.562286,343.858643,50.526459,,,
416,0,246.912369,153.499054,82.387436,181.061462,256.570160,103.976151,180.728821,128.544388,66.754456,168.823090,317.387695,80.136391,168.487503,342.543182,47.558460,,,
417,0,247.310562,153.758057,81.293121,181.424072,256.544006,103.805542,181.545151,128.936462,65.445381,169.050079,317.266479,78.976334,168.245438,341.438690,45.345451,,,
418,0,247.603683,153.787964,80.323090,181.869171,256.489655,103.747345,180.850082,128.805634,65.344360,168.925690,317.085541,78.923706,167.656891,341.003296,45.033535,,,
419,0,247.692154,153.687073,79.288017,182.301178,256.401093,103.714188,180.588455,128.773026,65.279015,168.728226,316.827515,78.896973,167.224762,340.802338,44.924385,,,
420,0,247.933334,153.690247,78.579697,182.604996,256.376068,103.778664,180.605652,128.757278,65.395920,168.878372,316.801300,78.917114,166.990021,340.685699,44.860146,,,
421,0,248.114288,153.776169,78.063904,182.931305,256.479645,103.928215,180.731628,128.817322,65.506721,168.918274,316.847961,79.041382,166.628830,340.592743,44.845409,,,
422,0,248.248322,153.926056,77.619995,183.387054,256.690582,104.039001,180.766113,128.948425,65.596207,168.940109,316.911438,79.059929,166.391327,340.532318,44.767723,,,
423,0,248.418701,154.085632,77.295151,183.894730,256.986572,104.065186,180.800247,129.230286,65.789024,169.263687,317.155457,79.021698,166.395828,340.716675,44.707348,,,
424,0,248.620712,154.324814,76.980209,184.396973,257.366547,104.078430,180.720169,129.602142,65.945992,169.596344,317.428894,78.864601,166.281906,340.810944,44.407593,,,
425,0,248.832504,154.623474,76.724022,184.843216,257.747009,104.039848,180.782623,129.960281,66.149696,169.905853,317.767242,78.603218,166.051651,340.736725,43.961330,,,
426,0,249.015961,154.963196,76.462303,185.221313,258.156952,103.960709,180.837189,130.381256,66.287239,170.205093,318.095276,78.337440,166.121475,340.937195,43.658447,,,
427,0,249.175140,155.330276,76.318764,185.604141,258.516174,104.001816,180.914841,130.789291,66.428665,170.491196,318.405701,78.215034,166.207031,340.996704,43.395367,,,
428,0,249.311829,155.655258,76.285698,185.864731,258.801270,104.133759,180.969681,131.167374,66.668396,170.644897,318.620667,78.222870,166.304352,341.129730,43.325729,,,
429,0,249.501251,155.972763,76.460266,186.017075,259.048004,104.306229,181.011719,131.450729,66.937111,170.801865,318.897797,78.285301,166.489990,341.285065,43.291893,,,
430,0,249.713959,156.235565,76.799194,186.224365,259.278992,104.556396,181.158737,131.676025,67.263504,171.111328,319.168671,78.361763,166.680405,341.410400,43.297852,,,
431,0,249.906509,156.428146,77.206131,186.463699,259.512817,104.881454,181.331482,131.942429,67.507164,171.343903,319.409088,78.666260,166.866455,341.542877,43.482037,,,
432,0,250.114716,156.585190,77.648994,186.680756,259.664246,105.369568,181.520859,132.192612,67.783524,171.643372,319.595459,79.175743,167.145142,341.871002,44.037827,,,
433,0,250.350677,156.685760,78.213654,187.122391,259.682098,106.107872,181.732483,132.362808,68.253914,172.088318,319.659302,80.064583,167.499237,341.960480,44.971611,,,
434,0,250.624664,156.605789,78.953766,187.658112,259.538635,107.146828,181.877853,132.398422,68.882782,172.660721,319.622559,81.306122,167.788879,341.847382,46.207409,,,
435,0,250.943130,156.255432,79.854843,188.319382,259.100739,108.575531,182.123627,132.289398,69.780563,173.282333,319.342255,83.028214,168.249268,341.786041,48.047134,,,
436,0,251.263855,155.686600,80.904915,188.917572,258.388336,110.352242,182.381607,131.893814,71.024414,173.800583,318.781189,85.220917,168.576996,341.318542,50.288723,,,
437,0,251.619995,154.811905,82.174103,189.504059,257.357635,112.462425,182.635468,131.120331,72.646141,174.249924,317.837097,87.760582,168.684509,340.248657,52.862026,,,
438,0,252.022034,153.683975,83.548279,190.011032,255.996231,114.799744,182.928177,130.017395,74.469299,174.544800,316.629761,90.585747,168.937622,339.612762,55.995380,,,
439,0,252.442749,152.178238,85.161949,190.478775,254.316574,117.346375,183.282593,128.473419,76.544952,174.726868,315.042419,93.561646,168.752594,338.092865,59.068157,,,
440,0,252.840576,150.455933,86.936462,190.916443,252.372803,119.965080,183.639954,126.616791,78.669037,174.869751,313.087067,96.567528,168.668152,336.441956,62.163982,,,
441,0,253.252151,148.380890,88.733765,191.233643,250.075577,122.678474,184.028336,124.453194,80.840813,174.860947,310.825836,99.603203,168.363327,334.160400,65.305313,,,
442,0,253.654953,146.046448,90.538239,191.476501,247.316727,125.373367,184.445480,122.151581,82.913010,174.744949,308.122284,102.655266,167.964630,331.520660,68.467934,,,
443,0,253.997116,143.382629,92.269569,191.530441,244.212830,128.084686,184.909271,119.585793,84.910545,174.542389,305.009094,105.630730,167.499771,328.521454,71.606964,,,
444,0,254.350357,140.434875,94.113831,191.527496,240.591843,130.777649,185.430008,116.973953,86.746727,174.143845,301.447845,108.586494,166.862854,324.810974,74.531021,,,
445,0,254.738068,137.052643,95.982155,191.364029,236.608459,133.416031,185.685577,112.398621,89.091164,173.630707,297.428284,111.364326,166.206146,320.787628,77.410995,,,
446,0,255.161133,133.278183,97.777901,191.205887,232.189148,135.897049,186.210709,108.384743,90.775185,173.206451,293.025055,114.118103,165.557510,316.382263,80.275993,,,
447,0,255.616135,129.119202,99.499435,191.065277,227.445938,138.201935,186.863510,103.832336,92.259880,172.811539,288.244873,116.620300,165.259552,311.917053,83.008026,,,
448,0,256.180206,124.653175,101.126816,191.033188,222.381653,140.267685,187.537598,99.077065,93.411140,172.507645,283.158630,118.912491,164.715103,306.822754,85.316322,,,
449,0,256.722290,119.841522,102.400932,191.090790,217.028809,142.132172,188.373871,93.900955,94.451759,172.280319,277.849701,120.828255,164.243225,301.355316,87.246780,,,
450,0,257.400116,114.852058,103.565613,191.103348,211.431549,143.757355,189.289749,88.549408,95.256577,172.015213,272.188751,122.569336,163.880142,295.829041,89.047119,,,
451,0,258.130798,109.577667,104.505936,191.212860,205.648102,145.102524,190.224472,82.995659,95.872246,171.732269,266.347015,123.983582,163.538681,289.985901,90.533798,,,
452,0,259.042114,104.223320,105.225632,191.475647,199.710281,146.126282,191.203461,77.218117,96.368042,171.672958,260.362610,125.136314,163.261871,283.788727,91.573242,,,
453,0,259.803558,98.591873,105.516289,191.777237,193.586349,146.901566,192.201492,71.273628,96.696953,171.792892,254.212296,125.898468,163.349930,277.746552,92.401306,,,
454,0,260.791046,92.808586,105.851425,192.405350,187.330048,147.427338,193.240967,65.171402,96.853653,172.005020,247.984573,126.324654,163.531235,271.389465,92.718384,,,
455,0,261.693420,86.941483,105.833626,192.779114,181.050522,147.661423,194.316452,58.981071,96.736328,172.318512,241.651611,126.456261,163.794785,264.962158,92.826202,,,
456,0,262.460297,80.906288,105.528847,193.095596,174.722549,147.637817,195.321472,52.662716,96.507637,172.632156,235.244888,126.274033,164.121933,258.385101,92.537086,,,
457,0,263.423615,74.818771,105.240166,193.513474,168.312164,147.370758,196.351685,46.404087,96.142311,173.018036,228.716507,125.795410,164.454407,251.788376,91.975449,,,
458,0,264.137177,68.657089,104.652061,193.937592,161.940598,146.891174,197.264114,40.328300,95.896454,173.366974,222.249496,125.110550,164.842361,245.111435,91.108307,,,
459,0,264.957062,62.486698,103.984108,194.380524,155.578201,146.180145,197.933456,34.185867,95.185616,173.743683,215.743454,124.121162,165.192184,238.404495,90.005424,,,
460,0,265.738037,56.272690,103.131317,194.893845,149.242630,145.295609,199.190155,27.468164,94.123360,174.154312,209.325989,122.866486,165.622971,231.761871,88.564804,,,
461,0,266.530396,50.105595,102.208183,195.417007,142.954041,144.235916,199.887573,20.918798,92.717537,174.557220,202.888031,121.457695,165.991440,225.069443,87.023674,,,
462,0,267.315063,44.030216,101.149895,195.924911,136.704376,143.046890,200.853256,14.554189,91.668411,174.842270,196.539993,119.998138,166.199799,218.464401,85.372108,,,
463,0,267.971222,38.021210,99.923828,196.452820,130.657578,141.756439,201.783234,8.283988,90.455330,175.155258,190.337570,118.554123,166.348618,212.083694,83.821251,,,
464,0,268.747528,32.173004,98.514915,196.971664,124.718719,140.388199,202.892319,1.749212,89.039139,175.473175,184.257950,117.029106,166.548752,205.889816,82.190857,,,
465,0,269.449097,26.526999,97.019058,197.479431,119.013863,138.950119,203.715271,-3.971415,88.078316,175.890121,178.402313,115.423042,166.742111,200.009094,80.592712,,,
466,0,270.139038,21.053741,95.529747,197.945755,113.518867,137.470642,204.363159,-9.490377,86.827744,176.148376,172.889267,113.872055,167.054245,194.379959,78.944328,,,
467,0,270.755280,15.806647,94.077591,198.349396,108.368576,135.948380,204.910873,-14.838737,85.496361,176.483444,167.708221,112.260864,167.167328,188.774658,77.243889,,,
468,0,271.282104,10.802959,92.714752,198.810654,103.487122,134.388855,205.455322,-19.898243,84.058327,176.871567,162.759659,110.558525,167.567612,183.709152,75.502907,,,
469,0,271.766541,6.061918,91.367912,199.406723,98.990982,132.818298,205.876450,-24.537348,82.634560,177.349716,158.130112,108.896339,168.224518,179.230438,73.783638,,,
470,0,272.245087,1.570791,89.911728,200.007553,94.776527,131.206299,206.287231,-28.936958,81.180954,177.874573,153.746918,107.112000,168.658234,174.763580,71.972214,,,
471,0,272.344269,-2.724294,88.188515,200.450119,90.595352,129.448212,206.635849,-33.074402,79.775024,178.411606,149.667236,105.234818,169.021957,170.414124,70.036758,,,
472,0,272.874054,-6.746830,86.569908,200.975830,86.857895,127.659470,206.961899,-37.009930,78.398384,178.952469,145.908615,103.302437,169.678207,166.745178,68.061356,,,
473,0,273.250397,-10.344468,84.975746,201.468460,83.462357,125.861046,207.228973,-40.627331,77.008057,179.453568,142.408127,101.336624,170.118637,163.112656,66.036369,,,
474,0,273.551178,-13.687346,83.387428,201.918518,80.280083,124.017677,207.403183,-43.963615,75.655365,179.887543,139.195908,99.271973,170.436874,159.728287,63.960663,,,
475,0,273.361023,-16.767673,81.646530,202.372879,77.429344,122.186630,207.576920,-47.075756,74.312958,180.265747,136.233093,97.206573,170.699829,156.544983,61.800350,,,
476,0,273.511963,-19.673626,80.060799,202.663300,74.755798,120.531395,207.611053,-49.876484,73.031143,180.684738,133.543839,95.305984,170.943237,153.665405,59.781284,,,
477,0,273.603821,-22.378473,78.479057,203.133377,72.323738,118.906212,207.723557,-52.493042,71.940048,180.960159,130.971024,93.484161,171.190842,151.007751,57.900814,,,
478,0,273.720428,-24.792381,77.007095,203.463760,70.052406,117.442474,207.654251,-54.751968,70.775406,181.389282,128.707016,91.858559,171.397324,148.505310,56.292984,,,
479,0,273.750580,-27.026398,75.632431,203.836838,67.944115,116.144081,207.541473,-56.890499,69.763344,181.656235,126.494064,90.443222,171.778687,146.293457,54.888969,,,
480,0,273.769806,-29.182560,74.355690,204.126892,65.900131,114.960709,207.460983,-58.890385,68.812065,182.063629,124.562622,89.289589,172.050201,144.279861,53.704819,,,
481,0,273.691315,-31.080444,73.204887,204.301559,64.068176,113.964386,207.343552,-60.694546,67.925774,182.344543,122.751732,88.279915,172.392868,142.444305,52.696983,,,
482,0,273.664429,-32.941242,72.262520,204.442352,62.273224,113.038643,207.237381,-62.531605,66.916344,182.606506,121.058975,87.306137,172.541336,140.543671,51.695759,,,
483,0,273.595947,-34.653896,71.445473,204.531067,60.638969,112.173157,207.118027,-64.107216,66.072365,182.898666,119.455811,86.382324,173.098999,139.179901,50.777428,,,
484,0,273.560822,-36.317719,70.758667,204.652420,59.150074,111.316978,207.044174,-65.612701,65.230324,183.164948,117.937088,85.408157,173.455719,137.639542,49.850418,,,
485,0,273.559082,-37.883198,70.122795,204.752808,57.753292,110.499718,206.872223,-66.950050,64.357307,183.391586,116.577316,84.496231,173.728302,136.193268,48.871475,,,
486,0,273.535126,-39.306595,69.421341,204.883133,56.478451,109.594017,206.828857,-68.185715,63.551792,183.661591,115.246513,83.543282,174.030823,134.907196,47.850563,,,
487,0,273.528625,-40.537086,68.616829,205.043915,55.299454,108.665001,206.797638,-69.445107,62.751396,183.851212,114.053101,82.511986,174.221054,133.611160,46.789322,,,
488,0,273.589966,-41.788918,67.817764,205.177414,54.191902,107.744591,206.843643,-70.577293,62.076588,184.056213,112.964233,81.446480,174.492523,132.396942,45.664688,,,
489,0,273.667908,-42.868042,66.966370,205.301300,53.209129,106.801514,206.898788,-71.682785,61.414753,184.211411,111.894348,80.337822,174.687622,131.296066,44.478401,,,
490,0,273.710663,-43.924580,66.110863,205.436279,52.277317,105.857643,206.918777,-72.589775,60.750175,184.362854,110.860497,79.210442,174.869736,130.287384,43.342613,,,
491,0,273.767212,-44.823940,65.327560,205.531784,51.318848,104.931389,206.914734,-73.513260,60.037868,184.518356,109.830940,78.074577,175.030151,129.023163,42.075668,,,
492,0,273.806793,-45.865486,64.591110,205.690079,50.392586,104.049782,206.965179,-74.565125,59.460819,184.672684,108.842896,77.162453,175.254807,128.084946,41.158161,,,
493,0,273.872131,-46.969868,63.939491,205.860886,49.264984,103.604141,206.937592,-75.513321,58.957310,184.958054,107.823883,76.904335,175.199799,127.126381,40.937187,,,
494,0,273.840607,-47.995903,63.351578,205.881119,47.975269,103.415573,206.957397,-76.583031,58.559559,184.967911,106.649590,76.910065,175.427750,125.912262,40.817562,,,
495,0,273.776001,-49.117195,63.107437,205.934036,46.764347,103.437630,206.879074,-77.659897,58.323582,185.199478,105.507591,76.853752,175.747986,124.701111,40.654686,,,
496,0,273.888184,-50.432953,63.161991,206.025421,45.517765,103.558395,206.849228,-78.919571,58.255661,185.487976,104.360077,76.862625,175.995377,123.451805,40.592293,,,
497,0,273.975128,-51.738014,63.266544,206.297165,44.384224,103.607185,206.879669,-80.149933,58.252502,185.659927,103.141129,76.846077,176.193375,122.040375,40.444782,,,
498,0,274.067566,-52.958725,63.349693,206.554428,43.327286,103.625771,206.982620,-81.369156,58.280903,185.982162,102.039040,76.717232,176.415054,120.701973,40.176952,,,
499,0,274.226318,-54.179543,63.230068,206.885986,42.308411,103.610695,207.050323,-82.506264,58.233810,186.319611,100.998657,76.536896,176.657684,119.414627,39.847946,,,
500,0,274.390503,-55.194458,63.032360,207.215149,41.277493,103.530106,207.099060,-83.444435,58.298897,186.688416,99.979515,76.334320,176.911392,118.223053,39.560421,,,
501,0,274.522491,-56.277843,62.666641,207.527206,40.282928,103.463264,207.248276,-84.563850,58.305977,187.072311,99.004692,76.187393,177.317047,117.018456,39.268547,,,
502,0,274.724640,-57.249733,62.348034,207.839706,39.330029,103.350838,207.447830,-85.573952,58.318722,187.503876,98.130592,76.005844,177.829636,116.062675,38.997223,,,
503,0,274.909607,-58.148689,62.021481,208.155014,38.399532,103.146484,207.480911,-86.360390,58.125576,187.989700,97.234680,75.822395,178.280350,115.310783,38.824142,,,
504,0,275.056427,-59.036064,61.674961,208.417252,37.568928,102.877113,207.566772,-87.204880,57.683426,188.418503,96.445190,75.608177,178.708374,114.614372,38.636589,,,
505,0,275.199921,-59.931885,61.362015,208.543579,36.809540,102.529312,207.670410,-88.022072,57.231785,188.878464,95.803650,75.522133,179.006668,114.249771,38.775974,,,
506,0,275.252350,-60.600285,61.034264,208.500107,36.198887,102.114738,207.772537,-88.758507,56.708111,189.126602,95.365044,75.240936,179.161392,114.067444,38.716805,,,
507,0,275.231049,-61.079426,60.636536,208.495056,35.692554,101.642517,207.825027,-89.295815,56.136448,189.287109,94.991081,74.963623,179.195480,113.916061,38.591400,,,
508,0,275.084381,-61.443592,60.254555,208.397415,35.291592,101.285637,207.684509,-89.676834,55.578381,189.375885,94.717155,74.751961,179.187073,113.736908,38.468285,,,
509,0,274.923828,-61.630283,59.905704,208.233307,34.927773,101.005707,207.503922,-89.904655,55.202702,189.385696,94.478233,74.639687,179.182373,113.639915,38.402313,,,
510,0,274.717346,-61.728996,59.700802,208.084229,34.708588,100.842995,207.280045,-89.979584,54.926170,189.339981,94.337105,74.569206,179.216766,113.543854,38.315426,,,
511,0,274.511322,-61.814793,59.559910,207.971878,34.607361,100.770836,207.067307,-89.990189,54.680359,189.369827,94.309731,74.487663,179.340744,113.370277,38.118515,,,
512,0,274.352661,-61.795143,59.530224,207.904266,34.642136,100.674393,206.896469,-89.884674,54.492977,189.448105,94.423248,74.392784,179.414612,113.401871,37.959175,,,
513,0,274.206573,-61.713806,59.451603,207.910477,34.754375,100.596375,206.677231,-89.695488,54.302258,189.576630,94.583725,74.272964,179.554092,113.446281,37.721176,,,
514,0,274.046509,-61.612232,59.323265,207.829483,34.866711,100.447426,206.468506,-89.431641,54.210144,189.791763,94.811623,74.088799,179.836700,113.550041,37.437572,,,
515,0,273.910645,-61.466347,59.081379,207.869919,34.990620,100.221725,206.329819,-89.226097,53.998581,190.061951,95.059059,73.923615,179.994232,113.854752,37.203911,,,
516,0,273.781219,-61.330181,58.780441,207.789948,35.100121,99.832947,206.184525,-89.123901,53.717155,190.465485,95.303207,73.588150,180.625916,113.842789,36.633099,,,
517,0,273.657990,-61.290535,58.441292,207.634354,35.278244,99.073524,205.996170,-88.964348,53.325867,190.645447,95.431595,72.403183,181.172897,113.665100,35.262619,,,
518,0,273.536255,-61.300056,58.133759,207.520935,35.504574,98.066246,205.941391,-88.940239,52.797646,190.786255,95.546776,71.056900,181.521881,113.683838,33.935307,,,
519,0,273.536133,-61.341702,57.673264,207.570618,35.601120,97.076263,205.849655,-88.893677,52.096764,191.102203,95.711296,69.994164,181.685837,113.709015,32.949371,,,
520,0,273.534088,-61.457550,57.164688,207.863342,35.545769,96.341484,205.944977,-88.890297,51.273582,191.478729,95.675529,69.424423,181.728470,113.810661,32.667831,,,
521,0,273.589294,-61.593082,56.650856,207.986938,35.255333,95.927574,205.988571,-88.835114,50.550747,191.569839,95.482353,69.232567,181.783264,113.959663,32.905025,,,
522,0,273.738007,-61.917435,56.247513,208.117477,34.882679,95.820389,206.056351,-88.950447,50.199272,191.565170,95.098305,69.372131,181.827255,114.273880,33.616837,,,
523,0,273.941071,-62.316147,56.054920,208.268311,34.487087,95.939331,206.108795,-89.296783,50.153675,191.561218,94.699547,69.632530,181.992340,114.361038,34.478806,,,
524,0,274.123657,-62.843719,56.077885,208.396317,34.003872,96.295921,206.244202,-89.806870,50.335133,191.579865,94.180183,70.059525,182.162567,114.513222,35.682201,,,
525,0,274.248535,-63.407787,56.326576,208.501175,33.405388,96.855591,206.249847,-90.244614,50.584667,191.599319,93.710739,70.692993,182.497910,114.967926,37.493759,,,
526,0,274.329529,-63.967937,56.712307,208.573181,32.775539,97.620461,206.216370,-90.745941,50.918140,191.670334,93.192955,71.875183,182.970245,115.281265,39.749229,,,
527,0,274.243011,-64.487434,57.204525,208.555603,31.975555,98.697350,206.039856,-91.266769,51.297394,191.888046,92.746361,73.763840,183.367126,115.572517,42.416073,,,
528,0,274.097046,-65.050812,57.898418,208.443588,31.066893,99.983879,205.635544,-91.565559,51.465580,192.125153,92.223053,76.444054,183.830460,116.361130,46.182766,,,
529,0,273.821167,-65.638954,58.792603,208.131180,30.029419,101.542191,205.622787,-92.336044,52.232822,192.111282,91.731483,79.502151,184.078934,116.846855,50.039055,,,
530,0,273.453705,-66.146782,59.811882,207.684845,29.039900,103.292870,205.278076,-92.823097,52.912457,191.915176,91.186401,82.884827,183.974335,117.185944,54.142063,,,
531,0,272.945892,-66.675339,61.078606,207.028854,27.980160,105.323990,204.829498,-93.342072,53.703957,191.229309,90.540733,86.425171,183.288696,117.263931,58.334320,,,
532,0,272.399933,-67.182716,62.442352,206.193405,26.959623,107.460037,204.368774,-93.828682,54.583572,189.984741,89.727364,90.055229,181.972382,117.098602,62.533817,,,
533,0,271.679932,-67.521576,63.953213,205.057663,25.847775,109.797195,203.782593,-94.258415,55.557930,188.401154,88.801033,93.770668,180.328476,116.692062,66.678635,,,
534,0,270.918213,-67.902046,65.510902,203.718109,24.683477,112.307587,203.110413,-94.798004,56.712906,186.664505,87.784439,97.503990,178.554993,116.123749,70.780113,,,
535,0,270.005127,-68.309380,67.177620,202.161713,23.382236,114.924446,202.327362,-95.382942,57.943161,184.799088,86.603966,101.345428,176.619415,115.432907,74.889183,,,
536,0,268.928589,-68.585396,68.840927,200.435989,22.018934,117.608864,201.384933,-95.924835,59.181248,182.823074,85.343842,105.298828,174.505569,114.632439,79.126968,,,
537,0,267.635590,-68.974831,70.406342,198.587860,20.580154,120.330566,200.346405,-96.567650,60.374851,180.607193,84.029671,109.260223,172.136124,113.710564,83.324089,,,
538,0,266.213654,-69.296043,71.967598,196.592667,19.081255,123.048851,199.208557,-97.303429,61.649448,178.144669,82.557060,113.158028,169.450165,112.697800,87.451324,,,
539,0,264.526825,-69.601616,73.356064,194.367859,17.555796,125.668884,197.872543,-98.115349,62.859982,175.454468,81.052940,116.923477,166.529510,111.406494,91.664413,,,
540,0,262.688385,-69.911240,74.666298,191.894485,15.997488,128.164749,196.381638,-98.904938,64.058189,172.438370,79.465050,120.540657,163.250397,110.106056,95.618019,,,
541,0,260.652222,-70.098907,75.804962,189.185028,14.346827,130.557220,194.645035,-99.719276,65.172897,169.303284,77.832840,123.969261,159.669067,108.721001,99.459404,,,
542,0,258.352295,-70.295914,76.834747,186.273422,12.677416,132.752304,192.750732,-100.582405,66.202087,165.731888,76.046097,127.257835,155.941223,107.215096,103.231575,,,
543,0,255.861557,-70.559944,77.709984,183.111176,10.957854,134.762634,190.739655,-101.548676,67.204674,161.915314,74.180321,130.400208,151.796585,105.494492,106.843361,,,
544,0,253.127365,-70.792709,78.411583,179.705658,9.150722,136.566864,188.598267,-102.615608,68.025772,157.884140,72.166946,133.283813,147.608246,103.849838,110.298294,,,
545,0,250.200836,-71.025421,79.008728,176.042801,7.319974,138.115845,186.072205,-103.667717,68.600784,153.580780,70.080032,135.895844,142.496750,102.088043,113.420845,,,
546,0,247.131500,-71.394882,79.456505,172.179764,5.407574,139.365448,183.507034,-104.817329,69.021835,148.903702,67.895782,138.103088,137.340820,100.066742,116.204369,,,
547,0,243.814331,-71.655258,79.708130,168.025620,3.521506,140.293381,180.778168,-105.949417,69.159004,143.767609,65.505989,139.923996,131.577560,97.880432,118.550606,,,
548,0,240.390839,-71.908150,79.691414,163.631622,1.611097,140.861221,178.096222,-107.283966,69.068176,138.366272,62.991650,141.271973,125.247063,95.447617,120.431236,,,
549,0,236.812286,-72.269936,79.446526,159.029800,-0.304005,141.035995,175.216660,-108.590721,68.863297,132.111786,60.385284,142.086029,118.527512,92.830452,121.893761,,,
550,0,233.108932,-72.668030,78.971687,154.214539,-2.192780,140.802551,172.269547,-110.056511,68.427505,125.875565,57.763702,142.381317,111.575882,90.194313,122.903755,,,
551,0,229.265854,-73.123573,78.226280,149.242844,-4.063870,140.142761,169.152359,-111.497093,67.799767,119.588684,55.091854,142.194031,104.500153,87.390785,123.451843,,,
552,0,225.246155,-73.573181,77.192307,144.118240,-5.875123,139.174286,165.916504,-113.048576,66.947197,113.267189,52.479668,141.496384,97.520149,84.689774,123.525917,,,
553,0,221.092606,-74.100380,75.896942,138.925095,-7.636746,137.762177,162.725174,-114.609238,65.912804,106.990974,49.969872,140.323746,90.566765,81.915161,123.078445,,,
554,0,216.891342,-74.572449,74.377403,133.685059,-9.378597,136.036850,159.900391,-115.912086,64.752213,100.760948,47.546329,138.774002,83.770531,79.226456,122.100952,,,
555,0,212.744690,-75.171913,72.733589,128.402084,-11.160304,133.986740,157.466858,-117.293449,63.358150,94.631706,45.104675,136.753876,77.167389,76.588150,120.601585,,,
556,0,208.689926,-75.747055,70.948776,123.213127,-12.887383,131.700836,151.102219,-119.451080,62.434101,88.523071,42.728924,134.323746,70.517937,73.882500,118.631721,,,
557,0,204.643127,-76.401306,69.013718,118.193665,-14.611724,129.237762,146.967712,-121.135460,61.004318,82.281097,40.216755,131.548218,63.786686,71.047760,116.170868,,,
558,0,200.714676,-77.082214,67.011650,112.739090,-16.269093,126.344147,144.411285,-122.485016,58.891705,75.955818,37.681046,128.379807,56.918423,68.105858,113.275452,,,
559,0,196.951309,-77.743980,64.822136,107.741425,-17.916561,123.387077,140.970993,-124.046318,56.975929,69.776726,35.144733,125.015396,50.240227,65.163673,110.053360,,,
560,0,193.326416,-78.382004,62.556820,102.960167,-19.377306,120.325676,138.801590,-125.644234,54.422138,64.019539,32.854393,121.514862,44.024181,62.455040,106.701378,,,
561,0,189.939560,-79.076614,60.271416,98.454910,-20.643923,117.160515,135.944580,-127.021805,52.224113,58.787178,30.832005,117.947197,38.298435,60.029839,103.262619,,,
562,0,186.612946,-79.579491,57.843399,94.337776,-21.652800,114.008392,133.831375,-128.639236,49.563568,53.909504,29.032866,114.394836,33.148273,58.002922,99.821838,,,
563,0,183.602127,-80.074013,55.392780,90.631004,-22.494362,110.860031,132.986847,-129.268280,46.897282,49.580627,27.596170,110.890388,28.471066,56.173359,96.404938,,,
564,0,180.811005,-80.495689,52.933247,87.190422,-23.163200,107.754677,130.763565,-130.409531,45.079662,45.776985,26.412769,107.433411,24.519270,54.776527,93.044586,,,
565,0,178.206467,-80.926964,50.518955,84.163605,-23.813126,104.760216,129.777420,-131.112106,42.847557,42.487488,25.528219,104.094810,20.936817,53.521961,89.847733,,,
566,0,175.819122,-81.309906,48.157490,81.356453,-24.440601,101.731499,124.006775,-132.727631,41.132950,39.424881,24.598852,100.866478,17.850714,52.430992,86.731247,,,
567,0,173.821014,-81.595757,46.024376,78.915359,-24.952530,99.117294,122.295219,-133.254684,39.402958,36.761017,23.809801,97.806137,15.113997,51.533520,83.719437,,,
568,0,171.744110,-82.085831,43.891907,76.737244,-25.443489,96.660980,120.935196,-133.806213,37.602608,34.349514,23.041384,94.970924,12.627198,50.537960,80.902512,,,
569,0,170.024872,-82.562218,41.999737,74.813515,-25.972734,94.433067,119.800293,-134.420471,35.866657,32.310394,22.377872,92.422668,10.535847,49.714581,78.257156,,,
570,0,168.517288,-83.110214,40.277851,73.140205,-26.427105,92.409874,118.161736,-135.151199,34.590332,30.533466,21.729364,90.093262,8.722013,49.026653,75.903671,,,
571,0,167.331238,-83.562378,38.717464,71.684677,-27.005270,90.570831,116.823570,-135.879654,32.986191,29.008560,21.107582,88.122826,7.166323,48.215683,73.835663,,,
572,0,166.221024,-84.139534,37.216469,70.442009,-27.534155,88.886429,115.451790,-136.588379,31.785652,27.669876,20.478668,86.290558,5.815019,47.602676,72.033447,,,
573,0,165.003128,-84.777672,35.752499,69.369110,-27.998795,87.363693,114.424774,-137.243240,30.702892,26.513462,19.934605,84.667168,4.612073,46.943676,70.300011,,,
574,0,164.048996,-85.347931,34.410500,68.336212,-28.496807,85.975082,113.829681,-137.843567,29.602262,25.515652,19.458208,83.222473,3.549819,46.458988,68.773666,,,
575,0,163.341202,-85.650085,33.247288,67.560982,-28.829727,84.749992,113.223106,-138.488983,28.674623,24.644493,19.021431,81.881737,2.596287,45.904701,67.404182,,,
576,0,162.229614,-86.309937,31.956583,66.589516,-29.472574,83.613838,112.185822,-139.082901,27.979578,23.909683,18.616110,80.754478,1.956859,45.445335,66.258736,,,
577,0,161.355469,-86.826218,30.880955,65.805695,-29.889240,82.618889,111.428978,-139.704834,27.461338,22.846762,17.946398,79.536598,0.741352,44.761902,64.871193,,,
578,0,160.527161,-87.326332,29.903723,65.036583,-30.339432,81.676414,110.547112,-140.303635,26.806847,22.148626,17.305548,78.563835,-0.010187,44.279816,63.759304,,,
579,0,159.741074,-87.838814,29.053629,64.175987,-30.800646,80.736389,109.936935,-140.898148,26.198591,21.376253,16.862173,77.534477,-0.780206,43.809013,62.648312,,,
580,0,158.955215,-88.317688,28.256304,63.394524,-31.219112,79.798859,109.223984,-141.430206,25.482347,20.609488,16.510979,76.459625,-1.577572,43.307251,61.454639,,,
581,0,158.230698,-88.760147,27.502132,62.589169,-31.604755,78.847870,108.702538,-142.131775,24.786085,19.734573,16.144657,75.231346,-2.393248,42.829540,60.173035,,,
582,0,157.534363,-89.195557,26.755756,61.798550,-31.876925,77.871170,108.238747,-142.501740,24.288853,18.837412,15.795733,73.966347,-3.340552,42.296360,58.696255,,,
583,0,156.859100,-89.598404,25.973858,61.016098,-32.124897,76.793465,107.661865,-142.995132,23.765121,18.124128,15.586880,72.559845,-4.073709,42.017345,57.119446,,,
584,0,156.186630,-89.975777,25.133289,60.261822,-32.310780,75.683434,106.994202,-143.531479,23.292944,17.324949,15.328068,71.027534,-4.880153,41.572025,55.412903,,,
585,0,155.520905,-90.351433,24.280687,59.532722,-32.432953,74.478584,106.835037,-144.413910,23.028967,16.656479,15.186127,69.455826,-5.535209,41.285149,53.472157,,,
586,0,154.922806,-90.702477,23.373634,58.831947,-32.548618,73.214928,106.103249,-144.833496,22.367090,15.940629,14.995005,67.683540,-6.586905,40.742016,51.367447,,,
587,0,154.339371,-91.022018,22.345026,58.017162,-32.648445,71.763451,105.580711,-144.864304,21.680475,15.223659,14.846729,65.882935,-6.961746,40.611347,49.382500,,,
588,0,153.964035,-91.169418,21.476326,57.515564,-32.643105,70.469177,104.948410,-145.134064,20.920366,14.508049,14.649454,63.985065,-7.770846,40.181973,47.186081,,,
589,0,153.175415,-91.499123,20.241173,56.771049,-32.797329,69.049332,104.429047,-145.470230,20.176247,13.726730,14.430476,62.029903,-8.421536,39.817883,44.836281,,,
590,0,152.867386,-91.641594,19.213737,56.095661,-32.934483,67.591766,103.839973,-145.681732,19.445766,13.016622,14.180607,59.941658,-9.164832,39.360584,42.222454,,,
591,0,152.159897,-91.959030,18.046371,55.239609,-33.270905,66.207939,103.438179,-145.933685,18.468130,12.186099,13.935992,57.835667,-9.801755,38.943523,39.541435,,,
592,0,151.784180,-92.176468,17.081066,54.418049,-33.531219,64.799149,103.339775,-146.091385,17.288847,11.493589,13.662025,55.686279,-10.247252,38.329170,36.906822,,,
593,0,151.479324,-92.342941,16.105396,53.847652,-34.050213,63.718857,102.891983,-146.338165,16.227434,11.165207,13.264676,54.900871,-10.522212,38.196663,36.479523,,,
594,0,151.262421,-92.521622,15.130688,53.921753,-34.859966,63.175247,102.441322,-146.471680,15.090540,11.151284,12.764923,55.009560,-10.609831,37.978245,36.537781,,,
595,0,151.052277,-92.836288,14.438428,53.957230,-35.307693,62.767178,101.949547,-146.681091,14.008481,11.082153,12.375121,54.883091,-10.596540,37.773579,36.449020,,,
596,0,151.028503,-93.089912,14.004123,54.011520,-35.532784,62.383823,101.817963,-146.859879,13.438706,11.456562,12.361222,54.621784,-10.522326,37.672676,36.364338,,,
597,0,151.022903,-93.369781,13.606279,54.224884,-35.678940,62.132004,101.734055,-147.060913,13.016335,11.532969,12.280741,54.688141,-10.199533,37.800900,36.331215,,,
598,0,151.024109,-93.523003,13.238229,54.355503,-35.722706,61.918575,101.657036,-147.310089,12.931955,11.361910,12.247390,54.525558,-10.419605,37.649147,36.272598,,,
599,0,151.012268,-93.613434,12.861215,54.440922,-35.706619,61.792240,101.660744,-147.478317,12.979864,11.502934,12.228240,54.545208,-10.412684,37.655891,36.255619,,,
600,0,150.898560,-93.636719,12.573135,54.499935,-35.663605,61.724174,101.737244,-147.498795,13.007384,11.584263,12.337490,54.538822,-10.403628,37.768372,36.242535,,,
601,0,151.069138,-93.462944,12.491407,54.753208,-35.313023,61.650368,101.680481,-147.591049,13.057346,11.654378,12.482375,54.561089,-10.402037,37.867477,36.227749,,,
602,0,150.708191,-93.533813,12.207866,54.616936,-35.360428,61.651756,101.547066,-147.611435,13.085889,11.725467,12.618146,54.618320,-10.147254,38.095730,36.280579,,,
603,0,150.866943,-93.317772,12.117807,54.712479,-35.268047,61.619217,101.579613,-147.390625,13.149461,11.679080,12.724282,54.647526,-10.183000,38.180943,36.305508,,,
604,0,150.729492,-93.311775,11.859284,54.744656,-35.184887,61.619003,101.424843,-147.297241,13.099527,11.684354,12.808252,54.665600,-10.214438,38.268002,36.296268,,,
605,0,150.540802,-93.308937,11.810763,54.774170,-35.145798,61.508850,101.663330,-147.194809,12.986366,11.700796,12.825367,54.675579,-10.512529,38.192528,36.286728,,,
606,0,150.534073,-93.245605,11.642714,54.808216,-35.138378,61.406769,101.586075,-147.168869,12.895272,11.779009,12.874568,54.666595,-10.284171,38.319458,36.311481,,,
607,0,150.965652,-93.213554,11.614742,54.878380,-35.205887,61.298176,101.503197,-147.062698,12.702266,11.955503,12.947734,54.674358,-10.216478,38.287518,36.300266,,,
608,0,150.620712,-93.129242,11.329634,54.888653,-35.234535,61.153961,101.656929,-147.103867,12.499635,11.873654,13.051661,54.468163,-10.047302,38.119595,36.347736,,,
609,0,150.675415,-93.075340,11.131944,55.057903,-35.294975,61.078121,101.650734,-147.047531,12.234770,11.915389,13.019636,54.444355,-10.492544,38.054340,36.301685,,,
610,0,150.784302,-93.058266,11.026791,55.107059,-35.314922,60.949074,101.645676,-146.994736,11.990908,11.858562,12.582346,54.453575,-10.448794,38.005665,36.289295,,,
611,0,150.811935,-93.012161,10.822940,55.168064,-35.318771,60.824162,101.650970,-147.027573,11.926436,11.998993,12.704832,54.358555,-10.452954,38.028942,36.317574,,,
612,0,150.844254,-92.938286,10.725116,55.312378,-35.300785,60.741112,101.782486,-147.042862,11.788573,11.782389,12.642030,54.316936,-10.447394,38.014610,36.285534,,,
613,0,150.913605,-92.876122,10.598993,55.404953,-35.243912,60.675308,101.795303,-146.959412,11.757335,11.776928,12.640343,54.274723,-10.379483,38.058701,36.283363,,,
614,0,150.926712,-92.880981,10.533029,55.433704,-35.230709,60.631187,101.788940,-146.997040,11.647491,11.799019,12.693056,54.237099,-10.410799,38.065102,36.287975,,,
615,0,150.931961,-92.838524,10.462412,55.514450,-35.156300,60.581108,101.863037,-146.932068,11.586126,11.824546,12.739738,54.213776,-10.393820,38.113083,36.291370,,,
616,0,150.926163,-92.811905,10.322675,55.581699,-35.129047,60.541218,102.102364,-146.922211,11.624807,11.818453,12.781934,54.131119,-10.412046,38.144382,36.300743,,,
617,0,150.935883,-92.807541,10.235640,55.653015,-35.121140,60.509521,101.978691,-146.852066,11.577778,11.830140,12.780925,54.098049,-10.429045,38.121178,36.243454,,,
618,0,150.904114,-92.806717,10.143561,55.645847,-35.138531,60.463669,101.846672,-146.892166,11.403659,11.773755,12.728444,54.141026,-10.069766,38.264313,36.212128,,,
619,0,150.885666,-92.775574,10.055777,55.693359,-35.109844,60.433849,101.814201,-146.827530,11.300192,12.112075,12.628491,54.398819,-10.028516,38.320320,36.198753,,,
620,0,150.852509,-92.771217,9.941622,55.733944,-35.077679,60.368103,102.051338,-146.915405,11.354179,12.114164,12.686869,54.391315,-9.980743,38.346020,36.193024,,,
621,0,150.887268,-92.784676,9.747516,55.858292,-35.067318,60.302299,101.924423,-146.749802,11.227569,12.161099,12.698765,54.363110,-9.929647,38.384357,36.194408,,,
622,0,150.885086,-92.768227,9.524866,55.931087,-35.099598,60.151783,101.796829,-146.850540,10.922295,12.240568,12.723722,54.356163,-9.873924,38.463097,36.184650,,,
623,0,150.903427,-92.737846,9.278262,55.968685,-35.099510,60.014473,101.825447,-146.779099,10.770956,12.303909,12.683687,54.357548,-9.804388,38.554222,36.173409,,,
624,0,150.900146,-92.708099,9.047323,56.001003,-35.163273,59.914478,101.822609,-146.780136,10.605087,12.382161,12.676982,54.384445,-10.191994,38.361408,36.199818,,,
625,0,150.836563,-92.753883,8.810173,56.024376,-35.231419,59.836872,101.793068,-146.702637,10.419208,12.356979,12.636196,54.373474,-10.158638,38.394054,36.194115,,,
626,0,150.829407,-92.736153,8.646142,56.080395,-35.342045,59.771614,101.641472,-146.759415,10.153040,12.400938,12.593918,54.381073,-10.228635,38.309906,36.193230,,,
627,0,150.776779,-92.777603,8.557792,56.046669,-35.353745,59.679379,101.691826,-146.801788,10.078889,12.403361,12.566668,54.354382,-10.251106,38.270351,36.154591,,,
628,0,150.755539,-92.798431,8.502303,56.060181,-35.383286,59.674175,101.680962,-146.882065,9.997622,12.379357,12.528841,54.345871,-10.544232,38.010612,36.228477,,,
629,0,150.730484,-92.840462,8.500986,56.112057,-35.418312,59.749657,101.562538,-146.866425,9.926921,12.367771,12.525459,54.346512,-10.547679,38.004757,36.242222,,,
630,0,150.700134,-92.848053,8.492050,56.178291,-35.452919,59.871452,101.606819,-146.750488,9.929853,12.348237,12.523226,54.354351,-10.546607,38.010513,36.232365,,,
631,0,150.706238,-92.865662,8.504946,56.202770,-35.450050,59.943108,101.515419,-146.932968,9.966745,12.337363,12.563010,54.348663,-10.563984,38.033211,36.240280,,,
632,0,150.641708,-92.914207,8.479018,56.183620,-35.342453,59.985191,101.642822,-146.988739,10.038819,12.318544,12.617596,54.422947,-10.580264,38.108177,36.251659,,,
633,0,150.631653,-92.838371,8.504477,56.218380,-35.336330,60.060646,101.652191,-146.954666,10.148870,12.354114,12.664698,54.440548,-10.580438,38.146820,36.175865,,,
634,0,150.624847,-92.801842,8.498246,56.219910,-35.238026,60.071239,101.592133,-146.946884,10.112418,12.366940,12.730028,54.453888,-10.558621,38.219879,36.179028,,,
635,0,150.608978,-92.809998,8.460351,56.223820,-35.226761,60.095196,101.876457,-147.042831,10.285465,12.411094,12.802231,54.458546,-10.559444,38.347549,36.081814,,,
636,0,150.627502,-92.789268,8.441229,56.203430,-35.124321,60.078865,101.479843,-146.850769,10.199376,12.463759,12.853635,54.461281,-10.573565,38.373413,36.075966,,,
637,0,150.623871,-92.792152,8.391355,56.218525,-35.108601,60.089428,101.650818,-146.754913,10.204676,12.474487,12.897861,54.488400,-10.548457,38.404510,36.035931,,,
638,0,150.646667,-92.691757,8.329368,56.200859,-35.267464,60.078167,101.538139,-146.605850,10.104857,12.455603,12.936334,54.471317,-10.584323,38.459808,35.974339,,,
639,0,150.644455,-92.698006,8.319337,56.198589,-35.258770,60.080574,101.758560,-146.605164,10.242023,12.445342,12.934865,54.471798,-10.363475,38.356434,36.313358,,,
640,0,150.664520,-92.682083,8.309692,56.206005,-35.291080,60.094009,101.953979,-146.742447,10.226985,12.480926,12.931014,54.476513,-10.491791,38.447403,36.084919,,,
641,0,150.705826,-92.681923,8.280502,56.158588,-35.279911,60.019192,101.687035,-146.626709,10.081409,12.516098,12.921561,54.472218,-10.393735,38.374931,36.310154,,,
642,0,150.725266,-92.679123,8.220149,56.126083,-35.265381,59.985558,101.639938,-146.577942,10.132398,12.546563,12.925650,54.468800,-10.420174,38.333794,36.333828,,,
643,0,150.716156,-92.667542,8.195591,56.105522,-35.264431,59.936180,101.735245,-146.595200,10.114888,12.572467,12.937477,54.472908,-10.360536,38.352238,36.327679,,,
644,0,150.740265,-92.652618,8.159939,56.098164,-35.252438,59.903385,101.680275,-146.579559,10.049384,12.613873,12.965620,54.470425,-10.359703,38.351822,36.324493,,,
645,0,150.713852,-92.597504,8.154966,56.077991,-35.175900,59.874641,101.608803,-146.576538,10.039083,12.582735,12.977799,54.495995,-10.314827,38.158306,36.484245,,,
646,0,150.735382,-92.626266,8.145141,56.140465,-34.914684,59.846653,101.655342,-146.479691,10.054996,12.592115,12.984485,54.495392,-10.396486,38.416279,36.278770,,,
647,0,150.729599,-92.621620,8.130386,56.067993,-35.071411,59.786793,101.521881,-146.500824,10.082582,12.600226,13.021997,54.461452,-10.412745,38.433056,36.266216,,,
648,0,150.757034,-92.671143,8.129192,56.150795,-34.839756,59.724693,101.808014,-146.566742,10.049479,12.694733,12.944901,54.652107,-10.328942,38.453903,36.296188,,,
649,0,150.779800,-92.637894,8.077513,56.168655,-35.025436,59.741482,101.870300,-146.576874,10.085830,12.707863,12.972565,54.617165,-10.345830,38.449486,36.266708,,,
650,0,150.758392,-92.689049,8.042641,56.222542,-34.985794,59.765633,101.722343,-146.572937,10.196468,12.692533,12.987802,54.518997,-10.342963,38.459309,36.264648,,,
651,0,151.038239,-92.793228,8.289159,56.194408,-34.984241,59.713779,101.674538,-146.584198,10.079635,12.690952,13.007963,54.516830,-10.346560,38.465916,36.262615,,,
652,0,150.931290,-92.766800,8.151009,56.186749,-34.835724,59.629074,101.686691,-146.629379,10.078548,12.710539,13.042452,54.516167,-10.327488,38.506004,36.253887,,,
653,0,150.799164,-92.723587,7.950754,56.185005,-34.830570,59.605236,101.866608,-146.610458,10.159829,12.733840,13.061338,54.508671,-10.325769,38.492096,36.254856,,,
654,0,150.736694,-92.721527,7.893313,56.182457,-34.832947,59.605095,101.734993,-146.597000,10.113988,12.758072,13.078200,54.516792,-10.276903,38.546658,36.282200,,,
655,0,150.738937,-92.720695,7.866837,56.239201,-34.780819,59.607780,101.678879,-146.581360,10.048797,12.798725,13.099464,54.536900,-10.289339,38.512169,36.329086,,,
656,0,150.709732,-92.722527,7.793117,56.245975,-34.754433,59.570011,101.760536,-146.633209,10.091098,12.829440,13.133874,54.548862,-10.267341,38.638245,36.330032,,,
657,0,150.680328,-92.725548,7.731361,56.295334,-34.720818,59.571842,101.819992,-146.657990,10.210935,12.838814,13.181642,54.558998,-10.297858,38.647572,36.311161,,,
658,0,150.654572,-92.733612,7.659263,56.280437,-34.698051,59.577545,101.673096,-146.635559,10.236886,12.872151,13.164032,54.581020,-10.260735,38.657043,36.317707,,,
659,0,150.649857,-92.732140,7.631387,56.290596,-34.720108,59.588184,101.744202,-146.686920,10.273907,12.849073,13.139773,54.600609,-10.278417,38.642040,36.329208,,,
660,0,150.633911,-92.795853,7.611521,56.283424,-34.743080,59.576984,101.732063,-146.645660,10.272386,12.956099,13.105801,54.755089,-10.261538,38.653107,36.335663,,,
661,0,150.630676,-92.817276,7.559168,56.303253,-34.717556,59.548786,101.527969,-146.630600,10.134743,12.941547,13.112097,54.710724,-10.275687,38.642307,36.336437,,,
662,0,150.634293,-92.831444,7.491763,56.319103,-34.717033,59.531349,101.768692,-146.653198,10.193977,12.892217,13.128061,54.631001,-10.244880,38.664341,36.321438,,,
663,0,150.595764,-92.884552,7.416085,56.323547,-34.727364,59.507999,101.863907,-146.766800,10.149524,12.829248,13.128355,54.596371,-10.257269,38.651020,36.339455,,,
664,0,150.569748,-92.907417,7.355842,56.329662,-34.779533,59.447025,101.679886,-146.790787,10.020337,12.818676,13.119411,54.576431,-10.266442,38.643597,36.341103,,,
665,0,150.504822,-92.950508,7.280650,56.275238,-34.859451,59.409611,101.500107,-146.921524,9.905279,12.801907,13.103794,54.568939,-10.272125,38.635487,36.339310,,,
666,0,150.466888,-92.972282,7.246327,56.249458,-34.891903,59.395164,101.608589,-146.894028,9.978241,12.746721,13.060029,54.548027,-10.280186,38.612679,36.343052,,,
667,0,150.429123,-93.021729,7.219278,56.197777,-34.964283,59.372093,101.499374,-146.919708,9.907066,12.727193,13.053119,54.564457,-10.298578,38.557232,36.336933,,,
668,0,150.411285,-93.053452,7.214316,56.220459,-34.926521,59.385406,101.476738,-146.929810,9.880889,12.724106,13.054379,54.564060,-10.317677,38.567467,36.326359,,,
669,0,150.431931,-93.102448,7.228283,56.247894,-34.849785,59.390839,101.342072,-146.951019,9.907967,12.741625,13.070233,54.545452,-10.318727,38.587135,36.330009,,,
670,0,150.437988,-93.141495,7.251728,56.247025,-34.851746,59.404137,101.538712,-146.960052,10.043846,12.749795,13.087319,54.558990,-10.290550,38.624081,36.338074,,,
671,0,150.404175,-93.150574,7.243218,56.271324,-34.813400,59.443432,101.516769,-146.954636,10.094348,12.776422,13.140246,54.584290,-10.262736,38.643501,36.358063,,,
672,0,150.396790,-93.143005,7.200354,56.319977,-34.740112,59.447990,101.260506,-146.980988,10.130489,12.778494,13.165936,54.588451,-10.248367,38.653286,36.366329,,,
673,0,150.372284,-93.154831,7.167743,56.278206,-34.740757,59.431564,101.260201,-146.979156,10.132908,12.792515,13.215857,54.585648,-10.272748,38.678089,36.353207,,,
674,0,150.335052,-93.166168,7.167825,56.282616,-34.731682,59.440353,101.449455,-146.940765,10.239988,12.798866,13.227283,54.581703,-10.219554,38.669117,36.364281,,,
675,0,150.329895,-93.142914,7.142840,56.270763,-34.734470,59.428780,101.435516,-146.999893,10.241471,12.799472,13.233623,54.585171,-10.238889,38.679371,36.345787,,,
676,0,150.297256,-93.172615,7.151308,56.290516,-34.760864,59.419762,101.283234,-146.908905,10.190708,12.825316,13.247730,54.593075,-10.235497,38.681038,36.366444,,,
677,0,150.318146,-93.194893,7.153000,56.300587,-34.777981,59.427231,101.267563,-147.173737,10.139738,12.799212,13.200344,54.585621,-10.219595,38.669559,36.366852,,,
678,0,150.301453,-93.228828,7.150718,56.275932,-34.819054,59.398697,101.267960,-147.102325,10.025109,12.782511,13.147136,54.582920,-10.245132,38.653454,36.371090,,,
679,0,150.301605,-93.230064,7.150647,56.293167,-34.823715,59.438889,101.203651,-147.049271,9.988418,12.805670,13.147655,54.610390,-10.212765,38.673058,36.391254,,,
680,0,150.307922,-93.238434,7.170704,56.264263,-34.834373,59.425465,101.270805,-147.095230,10.028250,12.801957,13.143969,54.605942,-10.233459,38.659584,36.379761,,,
681,0,150.307861,-93.236946,7.171251,56.273277,-34.851032,59.403339,101.320549,-147.062027,10.061420,12.799199,13.143354,54.588326,-10.208827,38.673466,36.386711,,,
682,0,150.307281,-93.237976,7.169872,56.314529,-34.825745,59.404400,101.122444,-147.092712,10.135487,12.806298,13.142601,54.574673,-10.248090,38.650940,36.365803,,,
683,0,150.324799,-93.260750,7.136389,56.294971,-34.822544,59.407379,101.242523,-147.013901,10.231344,12.789341,13.133729,54.577038,-10.263193,38.638973,36.353363,,,
684,0,150.318787,-93.240936,7.152490,56.334480,-34.795971,59.434574,101.258591,-147.030930,10.287938,12.816895,13.148985,54.596516,-10.246376,38.653889,36.360592,,,
685,0,150.336044,-93.266106,7.150652,56.317978,-34.807915,59.428555,101.322258,-147.017929,10.241798,12.822835,13.147196,54.580132,-10.272624,38.616783,36.354694,,,
686,0,150.349152,-93.279678,7.124520,56.324070,-34.843029,59.412304,101.370651,-146.985931,10.274834,12.803843,13.119384,54.588467,-10.247652,38.590469,36.361504,,,
687,0,150.380234,-93.275162,7.150211,56.306820,-34.852665,59.432693,101.313499,-146.972763,10.240095,12.796909,13.127353,54.556206,-10.256418,38.584736,36.363049,,,
688,0,150.376434,-93.271713,7.169282,56.302719,-34.841312,59.399673,101.198944,-147.001221,10.165301,12.807759,13.100742,54.551388,-10.238649,38.568394,36.351879,,,
689,0,150.391617,-93.279266,7.159752,56.328087,-34.867428,59.403278,101.272079,-147.053314,10.206382,12.798014,13.102185,54.566895,-10.244025,38.544071,36.340160,,,
690,0,150.389175,-93.302284,7.110606,56.321224,-34.849117,59.383327,101.322334,-147.017853,10.241997,12.801377,13.078502,54.578163,-10.268219,38.579708,36.334099,,,
691,0,150.402740,-93.347878,7.100765,56.308357,-34.888325,59.393391,101.395973,-147.105469,10.282903,12.827134,13.044612,54.552731,-10.225929,38.532429,36.354229,,,
692,0,150.362762,-93.357178,7.064723,56.326393,-34.904816,59.362972,101.443115,-147.203690,10.290682,12.813747,13.034231,54.531483,-10.087798,38.543686,36.413605,,,
693,0,150.357239,-93.369652,7.044642,56.301971,-34.925278,59.330292,101.540573,-147.284424,10.254957,12.803019,13.022305,54.522533,-10.096351,38.533585,36.414459,,,
694,0,150.319397,-93.406479,7.008034,56.314671,-34.949257,59.316002,101.437042,-147.266708,10.152247,12.808001,13.021278,54.519726,-10.268518,38.526886,36.327297,,,
695,0,150.300552,-93.411888,6.980619,56.274494,-34.965553,59.284317,101.370964,-147.216415,10.113036,12.813734,13.008983,54.522434,-10.243542,38.522095,36.327499,,,
696,0,150.295486,-93.479286,6.949965,56.290195,-34.975254,59.282978,101.488037,-147.229675,10.186178,12.798450,12.997577,54.510628,-10.269672,38.504070,36.317043,,,
697,0,150.259537,-93.486252,6.892810,56.276695,-34.984119,59.273712,101.536568,-147.270187,10.113711,12.793121,12.963836,54.503101,-10.305529,38.484707,36.316322,,,
698,0,150.240311,-93.483665,6.881142,56.254738,-34.987469,59.268002,101.337906,-147.241364,10.103721,12.787082,12.994354,54.506386,-10.270248,38.523708,36.324772,,,
699,0,150.197510,-93.489998,6.843488,56.253071,-34.999363,59.251911,101.199295,-147.107315,10.023549,12.778454,12.991202,54.518608,-10.268510,38.524124,36.337765,,,
700,0,150.181015,-93.498749,6.829891,56.258190,-34.985703,59.260754,101.273514,-147.191666,10.065045,12.782265,13.027570,54.511475,-10.245825,38.542645,36.348042,,,
701,0,150.157379,-93.537567,6.822313,56.279522,-34.981594,59.266624,101.272675,-147.194458,10.064471,12.828272,13.057990,54.532627,-10.233085,38.549236,36.349628,,,
702,0,150.155106,-93.580238,6.796538,56.276066,-34.960941,59.282093,101.251411,-147.233734,10.094077,12.849887,13.062100,54.541660,-10.230872,38.577019,36.350060,,,
703,0,150.172882,-93.592667,6.798890,56.310860,-34.934059,59.279144,101.225922,-147.338928,10.115818,12.851848,13.062450,54.540592,-10.217647,38.583694,36.348972,,,
704,0,150.168793,-93.608246,6.778515,56.325512,-34.904396,59.276642,101.147652,-147.319229,10.179648,12.880500,13.120769,54.552109,-10.199533,38.641838,36.363045,,,
705,0,150.172760,-93.600838,6.789264,56.358559,-34.892521,59.291286,101.266197,-147.330688,10.256895,12.918046,13.153436,54.568012,-10.182564,38.650150,36.358437,,,
706,0,150.136322,-93.626465,6.741874,56.338890,-34.853378,59.290985,101.241051,-147.204895,10.245374,12.926579,13.179842,54.569622,-10.135807,38.682140,36.393654,,,
707,0,150.125778,-93.613457,6.691411,56.326580,-34.844009,59.272659,101.089844,-147.106796,10.197989,12.909144,13.218752,54.557209,-10.165283,38.683842,36.391712,,,
708,0,150.088989,-93.620323,6.675395,56.295567,-34.835640,59.270134,101.048492,-147.227798,10.166969,12.887092,13.187216,54.566994,-10.190036,38.686230,36.384872,,,
709,0,150.054138,-93.616058,6.658473,56.297207,-34.837067,59.271290,100.976105,-147.201416,10.209467,12.877571,13.207803,54.566593,-10.212833,38.718967,36.379200,,,
710,0,150.029144,-93.659744,6.589129,56.265896,-34.836216,59.249153,100.845619,-147.156586,10.153566,12.891257,13.213602,54.536598,-10.223141,38.702843,36.370621,,,
711,0,149.968079,-93.629837,6.551272,56.253845,-34.877022,59.237782,100.896263,-147.301590,10.165406,12.863643,13.198047,54.547058,-10.255515,38.667049,36.371948,,,
712,0,149.983154,-93.679581,6.540114,56.240429,-34.907356,59.229538,100.787560,-147.294479,10.091086,12.845551,13.147393,54.564087,-10.260725,38.662285,36.363720,,,
713,0,149.947556,-93.723846,6.526939,56.250614,-34.917915,59.217991,100.723106,-147.288330,10.054009,12.845970,13.145012,54.542496,-10.242775,38.654877,36.368797,,,
714,0,149.959702,-93.737061,6.523029,56.237511,-34.933628,59.222927,100.846756,-147.234055,10.047680,12.846100,13.133430,54.540169,-10.263069,38.641285,36.358017,,,
715,0,149.960953,-93.747292,6.520466,56.261940,-34.910458,59.178371,100.807449,-147.398148,10.018925,12.871991,13.124393,54.531105,-10.244847,38.651157,36.364777,,,
716,0,150.014465,-93.777161,6.522669,56.267879,-34.930920,59.164345,100.919617,-147.367264,10.092249,12.871223,13.091232,54.502285,-10.215033,38.655579,36.339626,,,
717,0,150.039505,-93.795944,6.551901,56.284813,-34.933723,59.163719,101.009270,-147.413452,10.102360,12.865590,13.059351,54.503407,-10.198758,38.588001,36.352711,,,
718,0,150.058853,-93.797249,6.565166,56.321594,-34.928108,59.162556,101.019760,-147.313507,10.126542,12.871493,13.064795,54.496811,-10.220590,38.599785,36.330051,,,
719,0,150.080688,-93.840614,6.579695,56.320610,-34.924164,59.169521,101.133774,-147.325684,10.199622,12.925366,13.081972,54.507214,-10.224239,38.597103,36.334618,,,
720,0,150.098587,-93.832222,6.583283,56.305679,-34.916138,59.170326,101.000000,-147.250778,10.203703,12.914369,13.091496,54.511272,-10.208038,38.611496,36.311260,,,
721,0,150.081451,-93.769897,6.628139,56.363777,-34.868149,59.197742,101.031097,-147.319656,10.239589,12.902551,13.142729,54.494915,-10.253727,38.622334,36.311562,,,
