Trajectories
100
,,sano:Uln,,,sano:MPH3,,,sano:Rad,,,sano:PIP3,,,sano:DIP3,,,sano:DIP4,,,
Frame,Sub Frame,X,Y,Z,X,Y,Z,X,Y,Z,X,Y,Z,X,Y,Z,X,Y,Z
,,mm,mm,mm,mm,mm,mm,mm,mm,mm,mm,mm,mm,mm,mm,mm,mm,mm,mm
1,0,-57.641350,-12.434033,-17.971214,67.642815,-14.791575,-14.310290,-45.483105,49.911129,23.068903,110.089478,-3.070605,-69.382004,110.517807,15.922730,-106.241928,,,
2,0,-57.630642,-12.489421,-17.990875,67.656166,-14.805939,-14.309828,-45.480282,49.901371,23.083736,110.143501,-3.084163,-69.370140,110.542488,15.885674,-106.256271,,,
3,0,-57.621861,-12.469238,-17.997044,67.648628,-14.804904,-14.279624,-45.766724,49.788544,22.823107,110.187973,-3.092507,-69.303284,110.543503,15.892258,-106.209518,,,
4,0,-57.623486,-12.460912,-17.986942,67.642998,-14.791045,-14.282894,-45.789433,49.764469,22.812017,110.155701,-3.119755,-69.307762,110.527855,15.868128,-106.188705,,,
5,0,-57.640530,-12.438265,-18.038910,67.634186,-14.765290,-14.276525,-45.519714,49.923218,23.017357,110.177551,-3.117965,-69.274597,110.528595,15.870869,-106.196243,,,
6,0,-57.645615,-12.367336,-18.063036,67.636414,-14.789229,-14.283955,-45.522633,49.940575,23.008450,110.181732,-3.118931,-69.268921,110.584694,15.801639,-106.194923,,,
7,0,-57.677330,-12.398723,-18.116344,67.642044,-14.788046,-14.278036,-45.538597,49.909737,22.997116,110.180443,-3.126176,-69.284584,110.585312,15.804834,-106.203072,,,
8,0,-57.640594,-12.512763,-18.003607,67.652542,-14.779087,-14.262716,-45.540607,49.918350,22.999405,110.171356,-3.176185,-69.272797,110.582825,15.793458,-106.242676,,,
9,0,-57.649525,-12.507528,-18.050444,67.653641,-14.800866,-14.286153,-45.735470,49.873489,22.837200,110.174622,-3.169737,-69.286835,110.587158,15.798573,-106.269188,,,
10,0,-57.596954,-12.579450,-18.094461,67.673477,-14.790970,-14.324071,-45.720570,49.890564,22.810455,110.191750,-3.168650,-69.318909,110.584511,15.796149,-106.288116,,,
11,0,-57.575703,-12.497764,-18.027014,67.677086,-14.791018,-14.325550,-45.717846,49.872490,22.825117,110.227654,-3.137242,-69.290154,110.578239,15.801838,-106.340630,,,
12,0,-57.564350,-12.588517,-18.035891,67.668541,-14.770139,-14.359605,-45.718216,49.870991,22.807846,110.207649,-3.125432,-69.347954,110.578545,15.804209,-106.363953,,,
13,0,-57.573662,-12.516661,-18.032503,67.702934,-14.736728,-14.372744,-45.710178,49.831081,22.793970,110.243385,-3.098748,-69.366592,110.571289,15.830204,-106.413109,,,
14,0,-57.548866,-12.665508,-18.002346,67.713783,-14.726400,-14.443689,-45.672539,49.803795,22.789730,110.244713,-3.079620,-69.420799,110.593338,15.841998,-106.420601,,,
15,0,-57.518337,-12.681497,-18.035423,67.714691,-14.757177,-14.435326,-45.681789,49.853752,22.760559,110.189789,-3.092400,-69.486526,110.582306,15.897430,-106.485657,,,
16,0,-57.507870,-12.618927,-18.041094,67.726280,-14.724675,-14.461231,-45.671726,49.879524,22.772551,110.227501,-3.071622,-69.453499,110.553085,15.930733,-106.478737,,,
17,0,-57.523933,-12.547922,-18.119486,67.749062,-14.753646,-14.467823,-45.657173,49.910263,22.772470,110.272591,-3.021307,-69.488708,110.582962,15.898716,-106.493378,,,
18,0,-57.556786,-12.465910,-18.200506,67.757957,-14.768023,-14.465648,-45.658508,49.842529,22.715059,110.236893,-3.071756,-69.489685,110.626572,15.898294,-106.478844,,,
19,0,-57.556248,-12.472235,-18.202995,67.764389,-14.745208,-14.477217,-45.455143,49.900738,22.858198,110.303856,-3.053139,-69.471123,110.627609,15.893485,-106.474319,,,
20,0,-57.527317,-12.455976,-18.162663,67.765007,-14.751615,-14.462699,-45.661053,49.848080,22.696051,110.252960,-3.077212,-69.453690,110.604683,15.879415,-106.501831,,,
21,0,-57.549805,-12.409313,-18.256046,67.757690,-14.760573,-14.441253,-45.653019,49.885506,22.740993,110.285919,-3.081228,-69.441765,110.605309,15.857836,-106.474983,,,
22,0,-57.517910,-12.508029,-18.210894,67.753738,-14.781627,-14.469028,-45.658375,49.827393,22.697372,110.303413,-3.118280,-69.436386,110.605148,15.846081,-106.463257,,,
23,0,-57.523273,-12.485164,-18.219215,67.768127,-14.788571,-14.432405,-45.643654,49.784218,22.725220,110.313072,-3.124149,-69.436394,110.656326,15.802225,-106.477943,,,
24,0,-57.512386,-12.461673,-18.208952,67.792938,-14.805329,-14.443612,-45.432644,49.913628,22.833309,110.279800,-3.142966,-69.467499,110.656105,15.795801,-106.486008,,,
25,0,-57.522804,-12.552810,-18.219065,67.802483,-14.800171,-14.440072,-45.413528,49.899433,22.834913,110.331894,-3.168579,-69.423615,110.658272,15.758948,-106.498238,,,
26,0,-57.522655,-12.513562,-18.235586,67.808228,-14.787450,-14.417324,-45.621326,49.807457,22.682356,110.305847,-3.180060,-69.457817,110.665977,15.747166,-106.438972,,,
27,0,-57.527523,-12.486358,-18.197266,67.799782,-14.795155,-14.428490,-45.615402,49.825108,22.668182,110.317924,-3.174406,-69.438416,110.654564,15.757143,-106.511803,,,
28,0,-57.497108,-12.617124,-18.142126,67.807877,-14.787931,-14.454815,-45.429977,49.926888,22.804962,110.293678,-3.167499,-69.493050,110.658211,15.755255,-106.514153,,,
29,0,-57.501709,-12.541194,-18.167162,67.786430,-14.756144,-14.464473,-45.824291,49.670616,22.699001,110.296036,-3.125180,-69.502663,110.653740,15.788094,-106.513214,,,
30,0,-57.549908,-12.395163,-18.248110,67.778488,-14.750402,-14.471660,-45.634857,49.750187,22.839804,110.263512,-3.121552,-69.558067,110.629578,15.796329,-106.522659,,,
31,0,-57.558849,-12.447501,-18.285784,67.791206,-14.725332,-14.511043,-45.468208,49.947693,22.829742,110.256340,-3.093382,-69.606544,110.588509,15.876725,-106.594643,,,
32,0,-57.536251,-12.482883,-18.226843,67.792938,-14.714986,-14.529907,-45.455906,49.907368,22.816507,110.240143,-3.024690,-69.598778,110.585571,15.919656,-106.605461,,,
33,0,-57.548649,-12.394550,-18.257114,67.785301,-14.699695,-14.537957,-45.476845,49.909328,22.772791,110.214973,-3.020580,-69.642250,110.617859,16.114286,-106.964294,,,
34,0,-57.536907,-12.427913,-18.228809,67.797966,-14.685108,-14.539436,-45.458256,49.946095,22.816912,110.481392,-2.985384,-69.392258,110.585526,16.018522,-106.638306,,,
35,0,-57.525307,-12.525237,-18.163668,67.790634,-14.692006,-14.563371,-45.603195,49.821911,22.869293,110.478683,-2.973127,-69.400032,110.582596,16.028465,-106.624878,,,
36,0,-57.546082,-12.468491,-18.208376,67.802841,-14.672387,-14.562750,-45.612843,49.816063,22.847433,110.507294,-2.930699,-69.378609,110.605316,16.033655,-106.627960,,,
37,0,-57.512138,-12.479555,-18.159698,67.827278,-14.638983,-14.549761,-45.569717,49.811672,22.866735,110.531967,-2.927875,-69.378166,110.602585,16.060183,-106.653374,,,
38,0,-57.514408,-12.435015,-18.182964,67.842476,-14.592920,-14.533190,-45.381565,49.966427,22.832584,110.392723,-2.951996,-69.535828,110.631584,16.029314,-106.602997,,,
39,0,-57.473469,-12.565413,-18.140196,67.846420,-14.632035,-14.545657,-45.481033,49.807789,22.866287,110.410400,-2.955460,-69.477631,110.652931,15.990107,-106.604248,,,
40,0,-57.475769,-12.495754,-18.161724,67.845314,-14.630052,-14.547113,-45.463009,49.853302,22.864279,110.432014,-2.954265,-69.471252,110.668266,15.967995,-106.622002,,,
41,0,-57.484566,-12.485240,-18.176119,67.829605,-14.644849,-14.548408,-45.337582,49.986759,22.828671,110.434479,-2.961879,-69.477768,110.691887,15.978198,-106.601685,,,
42,0,-57.468231,-12.417856,-18.147194,67.852142,-14.648629,-14.549285,-45.278194,50.067833,22.847479,110.449951,-2.964693,-69.493958,110.671272,15.963738,-106.610611,,,
43,0,-57.479240,-12.453954,-18.190317,67.849487,-14.641793,-14.548762,-45.273888,50.068497,22.825043,110.419464,-2.948201,-69.532982,110.666748,15.953611,-106.609749,,,
44,0,-57.482883,-12.544363,-18.177061,67.853172,-14.638203,-14.561930,-45.317650,50.071983,22.831112,110.369392,-2.964980,-69.586525,110.633713,15.979089,-106.666481,,,
45,0,-57.528984,-12.395231,-18.247950,67.832733,-14.613008,-14.585119,-45.356209,50.121708,22.822027,110.550850,-2.941252,-69.430916,110.654991,16.010830,-106.668343,,,
46,0,-57.522903,-12.406896,-18.172014,67.798309,-14.553507,-14.604442,-45.474072,50.053764,22.754677,110.521782,-2.897116,-69.436707,110.608238,16.040449,-106.659935,,,
47,0,-57.539539,-12.321454,-18.221479,67.771049,-14.557022,-14.646411,-45.652473,49.899788,22.764778,110.504341,-2.862159,-69.458733,110.577599,16.067301,-106.660843,,,
48,0,-57.554005,-12.316463,-18.277754,67.785919,-14.556650,-14.655158,-45.638756,49.952030,22.807175,110.469391,-2.838609,-69.467400,110.552193,16.097244,-106.667000,,,
49,0,-57.587852,-12.266974,-18.378616,67.777016,-14.497804,-14.634633,-45.487404,50.151756,22.767235,110.488701,-2.816289,-69.489525,110.498695,16.122204,-106.689331,,,
50,0,-57.586029,-12.392329,-18.192287,67.792412,-14.481167,-14.624484,-45.511120,50.075005,22.766916,110.497688,-2.800888,-69.459808,110.522171,16.134581,-106.697731,,,
51,0,-57.566902,-12.375246,-18.253933,67.798859,-14.480548,-14.622350,-45.501312,50.106865,22.737051,110.492043,-2.781168,-69.471725,110.516594,16.159513,-106.709969,,,
52,0,-57.601231,-12.308990,-18.310041,67.801178,-14.501927,-14.620426,-45.493969,50.080425,22.720633,110.487938,-2.792005,-69.491936,110.544479,16.118382,-106.700333,,,
53,0,-57.538761,-12.377154,-18.216593,67.820091,-14.510116,-14.615272,-45.634563,49.954430,22.778997,110.506683,-2.809502,-69.484894,110.548195,16.124630,-106.694641,,,
54,0,-57.526421,-12.382465,-18.221312,67.829391,-14.532213,-14.595833,-45.448090,50.122269,22.748764,110.530182,-2.801846,-69.459099,110.617477,16.094635,-106.670486,,,
55,0,-57.514767,-12.464458,-18.186625,67.858047,-14.538079,-14.618814,-45.427036,50.085270,22.741535,110.540459,-2.821892,-69.477928,110.613777,16.090910,-106.697273,,,
56,0,-57.502193,-12.444114,-18.182089,67.862358,-14.557693,-14.628049,-45.372398,50.141399,22.768856,110.410416,-2.868271,-69.637970,110.636993,16.079578,-106.705238,,,
57,0,-57.478176,-12.361421,-18.199503,67.889435,-14.557731,-14.624637,-45.330128,50.157413,22.749397,110.423538,-2.878263,-69.635391,110.633286,16.073330,-106.705017,,,
58,0,-57.461899,-12.371137,-18.204460,67.915756,-14.574862,-14.623874,-45.308029,50.147915,22.771160,110.444946,-2.880824,-69.624565,110.656952,16.258923,-107.082527,,,
59,0,-57.446072,-12.429241,-18.143230,67.944656,-14.575835,-14.618526,-45.257408,50.165573,22.823399,110.605591,-2.865386,-69.498817,110.672836,16.073471,-106.780396,,,
60,0,-57.426003,-12.447239,-18.163584,67.958611,-14.563277,-14.628897,-45.183426,50.162632,22.850676,110.474236,-2.890826,-69.659187,110.688622,16.033268,-106.826973,,,
61,0,-57.409214,-12.413516,-18.186279,67.976395,-14.546933,-14.623147,-45.148586,50.205631,22.788809,110.646431,-2.886542,-69.537239,110.721893,16.190435,-107.128899,,,
62,0,-57.395802,-12.389989,-18.202024,68.005959,-14.546925,-14.648171,-45.092964,50.283306,22.834520,110.650551,-2.874812,-69.517647,110.711151,16.028740,-106.837669,,,
63,0,-57.399921,-12.265112,-18.287914,68.037361,-14.501739,-14.660615,-45.034451,50.283993,22.813101,110.547600,-2.904502,-69.652107,110.771431,16.063818,-106.841980,,,
64,0,-57.366413,-12.231931,-18.230028,68.045059,-14.498565,-14.703863,-44.985062,50.296860,22.833189,110.561890,-2.844806,-69.685394,110.774185,16.062782,-106.843498,,,
65,0,-57.306320,-12.348543,-18.183165,68.076332,-14.465983,-14.699899,-44.920895,50.298920,22.774689,110.752419,-2.829605,-69.568787,110.813896,16.080097,-106.846420,,,
66,0,-57.295410,-12.358367,-18.149199,68.118126,-14.441630,-14.685811,-44.907562,50.324173,22.813074,110.603584,-2.796063,-69.713867,110.849037,16.145372,-106.869659,,,
67,0,-57.286263,-12.367704,-18.198967,68.128632,-14.453687,-14.724081,-44.879314,50.340012,22.798779,110.798637,-2.746196,-69.583466,110.841049,16.166994,-106.872543,,,
68,0,-57.246773,-12.401804,-18.147873,68.162323,-14.451917,-14.726158,-44.857594,50.386372,22.774269,110.825638,-2.750787,-69.606537,110.854301,16.237944,-106.894424,,,
69,0,-57.270409,-12.239682,-18.214590,68.216759,-14.390219,-14.735478,-44.882099,50.374275,22.719166,110.656250,-2.740725,-69.793991,110.864487,16.257544,-106.934410,,,
70,0,-57.214661,-12.305632,-18.197178,68.199318,-14.361676,-14.760769,-45.026577,50.295177,22.634365,110.685066,-2.653135,-69.794479,110.860710,16.284107,-106.916496,,,
71,0,-57.191750,-12.315633,-18.155230,68.210304,-14.366747,-14.761448,-45.218948,50.246162,22.470129,110.862457,-2.667104,-69.642502,110.881851,16.275473,-106.899666,,,
72,0,-57.233490,-12.283031,-18.209974,68.225014,-14.358647,-14.762974,-45.214794,50.260777,22.453489,110.881142,-2.633072,-69.638878,110.920547,16.310566,-106.905174,,,
73,0,-57.236931,-12.254574,-18.248627,68.217224,-14.346539,-14.776411,-45.192902,50.284973,22.474430,110.880890,-2.633692,-69.638283,110.903030,16.275757,-106.884239,,,
74,0,-57.211475,-12.227759,-18.235653,68.208710,-14.320332,-14.770045,-45.203278,50.265598,22.441477,110.863785,-2.631522,-69.643562,110.919510,16.304995,-106.897179,,,
75,0,-57.235825,-12.205117,-18.204000,68.192574,-14.328274,-14.778194,-45.203342,50.247482,22.423525,110.881096,-2.658839,-69.640656,110.901657,16.268702,-106.861778,,,
76,0,-57.248238,-12.214311,-18.202940,68.182312,-14.297956,-14.770294,-45.204834,50.265762,22.452221,110.831337,-2.647029,-69.646179,110.856743,16.266783,-106.869171,,,
77,0,-57.241909,-12.235247,-18.207472,68.192482,-14.297725,-14.762777,-45.223816,50.317047,22.489054,110.815018,-2.610646,-69.646790,110.828224,16.261225,-106.930717,,,
78,0,-57.231106,-12.242541,-18.170496,68.163567,-14.333842,-14.759249,-45.228775,50.322205,22.481297,110.769699,-2.633299,-69.682602,110.807556,16.250000,-106.933823,,,
79,0,-57.258377,-12.232442,-18.226830,68.155754,-14.340846,-14.779152,-45.049343,50.453762,22.620415,110.773468,-2.639729,-69.680191,110.784225,16.253761,-106.940254,,,
80,0,-57.247822,-12.252992,-18.197002,68.151398,-14.355220,-14.780779,-45.255180,50.288044,22.515072,110.770149,-2.633438,-69.682343,110.785332,16.254938,-106.948349,,,
81,0,-57.251766,-12.274154,-18.223135,68.152321,-14.351055,-14.791627,-45.076931,50.299713,22.620455,110.790329,-2.661251,-69.708580,110.811012,16.221642,-106.941940,,,
82,0,-57.242783,-12.290815,-18.243113,68.162186,-14.374051,-14.828480,-45.232159,50.238121,22.475092,110.789474,-2.662905,-69.707237,110.811966,16.217724,-106.930588,,,
83,0,-57.253479,-12.270123,-18.274267,68.147003,-14.371967,-14.821465,-45.060558,50.349243,22.530645,110.781616,-2.677700,-69.736641,110.811974,16.222454,-106.945839,,,
84,0,-57.244183,-12.256858,-18.229202,68.178070,-14.368156,-14.822305,-45.068291,50.343010,22.549528,110.794991,-2.681869,-69.745941,110.818596,16.172617,-106.952065,,,
85,0,-57.249882,-12.250051,-18.249731,68.173576,-14.363441,-14.843111,-45.272583,50.227592,22.423349,110.775589,-2.713257,-69.746971,110.812325,16.194170,-106.988686,,,
86,0,-57.232784,-12.288783,-18.217978,68.179344,-14.353538,-14.842002,-45.230553,50.283443,22.395344,110.771240,-2.733506,-69.769379,110.803116,16.170523,-107.044716,,,
87,0,-57.234695,-12.263686,-18.198765,68.179085,-14.333368,-14.847961,-45.021656,50.364178,22.536488,110.767532,-2.725708,-69.797287,110.781944,16.176384,-107.060829,,,
88,0,-57.265381,-12.220827,-18.240734,68.175575,-14.318089,-14.870922,-45.031761,50.413853,22.529913,110.765305,-2.742490,-69.788513,110.761894,16.163742,-107.074425,,,
89,0,-57.249542,-12.174372,-18.192507,68.171463,-14.331803,-14.881557,-45.021900,50.435585,22.535791,110.784515,-2.681440,-69.833893,110.781395,16.170212,-107.063133,,,
90,0,-57.248333,-12.238423,-18.185316,68.184235,-14.321200,-14.882638,-45.010487,50.443161,22.525640,110.785973,-2.708588,-69.827332,110.776962,16.188265,-107.099876,,,
91,0,-57.262016,-12.202346,-18.259123,68.201225,-14.303918,-14.904004,-45.001469,50.414108,22.502787,110.780624,-2.672369,-69.834274,110.793541,16.224911,-107.125999,,,
92,0,-57.226089,-12.150724,-18.246063,68.227547,-14.275714,-14.924706,-44.991035,50.443371,22.470955,110.788155,-2.601935,-69.887634,110.769386,16.219345,-107.117065,,,
93,0,-57.207806,-12.151173,-18.255859,68.221550,-14.261697,-14.933080,-44.966343,50.459942,22.493126,110.792717,-2.591115,-69.867828,110.786179,16.292753,-107.129555,,,
94,0,-57.209042,-12.184269,-18.245609,68.252716,-14.256114,-14.920374,-44.953819,50.440529,22.528389,110.806595,-2.589914,-69.869347,110.798943,16.284855,-107.140671,,,
95,0,-57.213715,-12.125793,-18.272449,68.257019,-14.227994,-14.925002,-45.139759,50.399357,22.335527,110.810432,-2.558684,-69.867760,110.796112,16.316193,-107.133118,,,
96,0,-57.218391,-12.136951,-18.239546,68.276756,-14.204988,-14.942864,-45.101902,50.356472,22.309515,110.829033,-2.561363,-69.862282,110.798981,16.323542,-107.126915,,,
97,0,-57.183174,-12.131415,-18.211668,68.298943,-14.209248,-14.929258,-45.077248,50.376057,22.335978,110.844193,-2.570361,-69.860573,110.828461,16.380249,-107.180733,,,
98,0,-57.171959,-12.153515,-18.185329,68.291641,-14.196520,-14.939047,-45.068233,50.420166,22.353891,110.844017,-2.571050,-69.859985,110.851555,16.339211,-107.175064,,,
99,0,-57.161751,-12.196442,-18.226442,68.310150,-14.203295,-14.938386,-45.062008,50.466351,22.324533,110.872032,-2.563404,-69.873573,110.880150,16.325590,-107.177818,,,
100,0,-57.171608,-12.080553,-18.283501,68.320061,-14.215687,-14.937678,-45.026875,50.451725,22.322556,110.892029,-2.579229,-69.865227,110.862686,16.277935,-107.140556,,,
101,0,-57.146233,-12.106413,-18.201666,68.321678,-14.189773,-14.933309,-45.038921,50.464458,22.325445,110.888206,-2.614640,-69.881508,110.877251,16.311852,-107.146576,,,
102,0,-57.113323,-12.087770,-18.175323,68.320396,-14.198334,-14.941714,-45.028950,50.464725,22.316862,110.881691,-2.594813,-69.894333,110.869400,16.249954,-107.127953,,,
103,0,-57.119534,-12.112070,-18.175087,68.330185,-14.194820,-14.941939,-45.040813,50.424038,22.315699,110.881218,-2.599827,-69.904251,110.875137,16.311710,-107.186485,,,
104,0,-57.137852,-12.100292,-18.229273,68.321381,-14.195311,-14.947315,-45.015957,50.449745,22.322159,110.898918,-2.577122,-69.908699,110.877159,16.309673,-107.215469,,,
105,0,-57.123936,-12.102082,-18.178423,68.321098,-14.194812,-14.948803,-45.000153,50.466702,22.354885,110.880936,-2.600703,-69.902649,110.853203,16.295094,-107.219658,,,
106,0,-57.135044,-12.088858,-18.216854,68.320229,-14.170115,-14.966022,-44.995705,50.416885,22.248516,110.877922,-2.544118,-69.949059,110.835899,16.263556,-107.204330,,,
107,0,-57.122005,-12.136786,-18.193449,68.311852,-14.162648,-14.985744,-45.024082,50.472794,22.308372,110.860001,-2.585233,-69.966530,110.832161,16.264063,-107.224777,,,
108,0,-57.134411,-12.063378,-18.244108,68.316208,-14.174746,-14.990896,-45.009621,50.504333,22.254745,110.845444,-2.564872,-69.966286,110.820297,16.325222,-107.287529,,,
109,0,-57.145157,-12.026375,-18.256296,68.309196,-14.146164,-14.986213,-45.024021,50.512177,22.294228,110.829620,-2.536541,-69.980576,110.826866,16.298353,-107.240730,,,
110,0,-57.140263,-12.040114,-18.244308,68.297913,-14.119659,-14.994955,-45.034451,50.513859,22.270994,110.811295,-2.532927,-69.987381,110.826332,16.299305,-107.241615,,,
111,0,-57.175503,-12.027096,-18.286375,68.290703,-14.099282,-15.000580,-45.076870,50.476475,22.262836,110.810440,-2.533316,-69.986183,110.805420,16.305117,-107.250572,,,
112,0,-57.170734,-12.083228,-18.244982,68.270248,-14.119292,-15.000495,-44.916428,50.543797,22.360106,110.811462,-2.508693,-69.999611,110.774803,16.369982,-107.260994,,,
113,0,-57.210732,-12.112188,-18.266308,68.279427,-14.128721,-15.008394,-44.952263,50.510414,22.373213,110.815842,-2.502521,-69.992477,110.774620,16.365408,-107.249641,,,
114,0,-57.196049,-12.086927,-18.306774,68.278587,-14.089342,-14.998909,-45.105499,50.482685,22.237617,110.814941,-2.476518,-69.996017,110.795715,16.388912,-107.234497,,,
115,0,-57.215927,-12.129212,-18.301079,68.283226,-14.098140,-15.002274,-44.942089,50.526402,22.374908,110.814766,-2.476726,-69.995804,110.791672,16.387323,-107.232185,,,
116,0,-57.194347,-12.103923,-18.243452,68.297798,-14.095345,-15.010399,-45.129875,50.470787,22.222755,110.801445,-2.456181,-69.995796,110.805962,16.443386,-107.238518,,,
117,0,-57.189362,-12.136515,-18.290600,68.313873,-14.078735,-15.021374,-45.088375,50.488651,22.235111,110.840523,-2.401297,-70.015541,110.822449,16.456839,-107.263794,,,
118,0,-57.178467,-12.127308,-18.294493,68.314713,-14.068263,-15.039412,-45.093346,50.474583,22.259354,110.815849,-2.431583,-70.016541,110.823074,16.452991,-107.255707,,,
119,0,-57.159801,-12.184723,-18.285456,68.312843,-14.084360,-15.044622,-44.888683,50.551971,22.400146,110.848373,-2.426380,-70.025299,110.823776,16.434149,-107.244911,,,
120,0,-57.174053,-12.076357,-18.355019,68.320190,-14.090923,-15.010453,-44.905670,50.546513,22.362555,110.870834,-2.445971,-69.995346,110.828804,16.426012,-107.261383,,,
121,0,-57.180893,-12.078916,-18.362022,68.324646,-14.075071,-15.042731,-45.075054,50.468624,22.256977,110.887276,-2.457345,-69.992317,110.829994,16.433128,-107.247879,,,
122,0,-57.158833,-12.112149,-18.314548,68.333153,-14.095030,-15.053998,-44.872280,50.547935,22.331137,110.863838,-2.464775,-70.010193,110.826897,16.425615,-107.290031,,,
123,0,-57.151398,-12.080621,-18.313145,68.365753,-14.105221,-15.046778,-44.858990,50.521412,22.323483,110.912872,-2.490067,-70.005562,110.854599,16.390179,-107.257202,,,
124,0,-57.133461,-12.071978,-18.294523,68.357323,-14.115278,-15.073443,-44.869740,50.521191,22.313225,110.926064,-2.534040,-70.002495,110.902550,16.360682,-107.263550,,,
125,0,-57.145546,-12.052430,-18.325764,68.363197,-14.147610,-15.064713,-45.059399,50.420753,22.108349,110.904465,-2.569819,-70.043617,110.878571,16.344219,-107.289780,,,
126,0,-57.149605,-12.066708,-18.334318,68.348114,-14.143517,-15.084082,-45.048992,50.476109,22.107523,110.889061,-2.543968,-70.056404,110.862076,16.304688,-107.315681,,,
127,0,-57.167171,-12.122940,-18.361206,68.342743,-14.131147,-15.105908,-45.018208,50.550999,22.167351,110.897362,-2.559963,-70.083771,110.850975,16.317280,-107.350891,,,
128,0,-57.170120,-12.175216,-18.321587,68.354179,-14.130962,-15.127708,-45.039639,50.532257,22.156485,110.880814,-2.540179,-70.099312,110.825653,16.310265,-107.396767,,,
129,0,-57.170418,-12.117783,-18.321335,68.357117,-14.108006,-15.119580,-45.031509,50.505718,22.091274,110.859848,-2.568045,-70.102837,110.804367,16.303518,-107.401428,,,
130,0,-57.165886,-12.062249,-18.309036,68.379807,-14.080594,-15.115262,-45.037384,50.508659,22.078732,110.860085,-2.527562,-70.126511,110.804871,16.305159,-107.407722,,,
131,0,-57.181576,-12.004455,-18.367367,68.370300,-14.062464,-15.130863,-45.018459,50.538216,22.084663,110.842697,-2.463948,-70.184044,110.791801,16.371414,-107.451729,,,
132,0,-57.109913,-12.062119,-18.295910,68.367264,-14.056442,-15.149171,-45.016350,50.556828,22.067522,110.861748,-2.452427,-70.154762,110.796219,16.379021,-107.449226,,,
133,0,-57.099903,-12.130293,-18.259644,68.377670,-14.045704,-15.149720,-45.036545,50.510853,22.057627,110.866646,-2.447620,-70.146446,110.841011,16.386385,-107.403419,,,
134,0,-57.111061,-12.010012,-18.302204,68.393044,-14.037861,-15.138231,-44.989647,50.543873,22.100885,110.884270,-2.435030,-70.133492,110.858513,16.424040,-107.394890,,,
135,0,-57.092953,-11.977852,-18.317350,68.397499,-14.017573,-15.147598,-44.987381,50.547684,22.084972,110.923119,-2.416478,-70.107193,110.893578,16.495359,-107.401222,,,
136,0,-57.091156,-12.096713,-18.301672,68.404480,-14.035369,-15.150506,-44.995621,50.534611,22.077419,110.942070,-2.396362,-70.125854,110.895241,16.493193,-107.398048,,,
137,0,-57.087296,-12.047697,-18.301363,68.426987,-14.046690,-15.148371,-44.973629,50.553257,22.083138,110.942467,-2.365898,-70.121368,110.942551,16.498610,-107.378738,,,
138,0,-57.046040,-11.998659,-18.306887,68.438980,-14.022461,-15.128964,-44.967636,50.520634,22.070204,110.969254,-2.376105,-70.063568,110.940529,16.495651,-107.368103,,,
139,0,-57.065575,-12.004426,-18.362019,68.441765,-14.041759,-15.131429,-44.969715,50.560894,22.060402,110.983131,-2.406005,-70.067650,110.972778,16.448362,-107.316994,,,
140,0,-57.073910,-12.014893,-18.324339,68.438736,-14.009332,-15.116665,-44.919796,50.571495,22.076559,111.001984,-2.372687,-70.068428,110.946739,16.480684,-107.322121,,,
141,0,-57.063755,-11.967617,-18.299028,68.442184,-13.997489,-15.135534,-44.918892,50.628647,22.059608,110.976082,-2.403418,-70.108330,110.965233,16.455940,-107.394897,,,
142,0,-57.084625,-11.968765,-18.358625,68.471939,-13.975517,-15.112326,-44.920952,50.655861,22.046652,110.976570,-2.407424,-70.118401,110.951721,16.427446,-107.400475,,,
143,0,-57.056194,-11.985970,-18.341124,68.472466,-13.967204,-15.127059,-44.929955,50.663750,22.113522,110.991104,-2.405023,-70.123299,110.960548,16.451099,-107.404182,,,
144,0,-57.055809,-11.989553,-18.342995,68.485092,-13.900627,-15.144629,-44.897869,50.635265,21.999817,110.992027,-2.397340,-70.155418,110.940628,16.446333,-107.418671,,,
145,0,-57.005623,-11.947123,-18.293491,68.476753,-13.902779,-15.170099,-44.884537,50.668159,22.003056,110.991753,-2.371666,-70.159286,110.939888,16.437378,-107.415222,,,
146,0,-57.042439,-11.851213,-18.319113,68.450394,-13.877356,-15.180588,-44.881763,50.742683,22.077988,110.956070,-2.349234,-70.200745,110.932945,16.477945,-107.471054,,,
147,0,-57.029362,-11.941650,-18.292370,68.451195,-13.884467,-15.197580,-44.857403,50.729671,22.021952,110.954140,-2.344721,-70.212654,110.910057,16.508572,-107.478920,,,
148,0,-57.031467,-11.871960,-18.324606,68.448685,-13.885186,-15.226501,-44.858734,50.728275,22.013641,110.975906,-2.289005,-70.216873,110.903931,16.526318,-107.470657,,,
149,0,-57.046421,-11.912358,-18.281656,68.479080,-13.824213,-15.219826,-44.856880,50.801220,22.083506,110.955627,-2.224802,-70.254578,110.885452,16.599321,-107.542030,,,
150,0,-57.011440,-11.890305,-18.312315,68.477707,-13.807535,-15.233768,-44.855923,50.728729,22.000782,110.959061,-2.224697,-70.255226,110.908348,16.621862,-107.526367,,,
151,0,-57.044693,-11.930174,-18.350164,68.483284,-13.808536,-15.254687,-44.851540,50.710239,21.989117,110.958054,-2.222095,-70.256996,110.900871,16.644909,-107.530106,,,
152,0,-57.034489,-11.990870,-18.296076,68.480003,-13.806624,-15.269640,-44.856575,50.746094,22.081373,110.980270,-2.214111,-70.271812,110.901230,16.646889,-107.532066,,,
153,0,-57.030289,-12.026935,-18.266342,68.492088,-13.823639,-15.260380,-44.822613,50.714062,22.016624,110.999809,-2.188878,-70.279037,110.920479,16.676111,-107.569397,,,
154,0,-57.066704,-12.041924,-18.376667,68.491676,-13.823533,-15.261363,-44.901436,50.693222,22.036713,110.991257,-2.197272,-70.266594,110.905861,16.613161,-107.552849,,,
155,0,-57.053280,-11.955046,-18.326982,68.455360,-13.825858,-15.273750,-44.889652,50.752831,22.033012,110.958244,-2.228381,-70.281670,110.918922,16.580450,-107.506126,,,
156,0,-57.065105,-11.857912,-18.358820,68.447929,-13.826724,-15.259629,-44.867409,50.768551,21.973684,110.941872,-2.238759,-70.264618,110.886040,16.602472,-107.550461,,,
157,0,-57.053062,-11.900322,-18.339329,68.458221,-13.820055,-15.266871,-44.867035,50.772503,21.951084,110.943886,-2.240684,-70.263580,110.869164,16.561525,-107.546371,,,
158,0,-57.041039,-11.867287,-18.262281,68.448463,-13.824948,-15.247686,-44.861057,50.886463,22.068235,110.925728,-2.248654,-70.266228,110.848915,16.548960,-107.566689,,,
159,0,-57.043716,-11.939520,-18.287884,68.439873,-13.812157,-15.228456,-44.879593,50.768559,21.983055,110.903145,-2.240030,-70.300629,110.831223,16.521811,-107.553764,,,
160,0,-57.035431,-11.915644,-18.243410,68.454552,-13.835219,-15.232597,-44.890789,50.793716,21.967873,110.904572,-2.259668,-70.286743,110.835228,16.582878,-107.608940,,,
161,0,-57.035885,-11.831154,-18.265837,68.444656,-13.846649,-15.248173,-44.846306,50.769505,21.986835,110.901154,-2.252643,-70.298782,110.848434,16.552525,-107.570610,,,
162,0,-57.027527,-11.875162,-18.325275,68.466354,-13.835929,-15.283841,-44.833786,50.736954,21.995062,110.934570,-2.231625,-70.315773,110.870071,16.561106,-107.571854,,,
163,0,-57.059052,-11.891629,-18.420034,68.473167,-13.827968,-15.286532,-44.900017,50.710560,22.017233,110.934578,-2.230034,-70.317116,110.859520,16.601143,-107.587921,,,
164,0,-57.049110,-11.932645,-18.366507,68.483688,-13.825480,-15.290058,-44.853111,50.688118,21.973394,110.933853,-2.228893,-70.317314,110.900490,16.599045,-107.593948,,,
165,0,-57.029350,-11.993159,-18.291121,68.485756,-13.814795,-15.312419,-44.806076,50.747498,22.026314,110.949944,-2.206911,-70.338074,110.891068,16.623171,-107.627937,,,
166,0,-57.015469,-11.930014,-18.341772,68.512016,-13.858736,-15.293380,-44.630714,50.771755,22.052298,110.959564,-2.252013,-70.352188,110.920403,16.589445,-107.646790,,,
167,0,-57.016071,-11.962061,-18.329031,68.504311,-13.839110,-15.324325,-44.806133,50.716923,21.904530,110.975616,-2.260787,-70.350182,110.898705,16.574303,-107.657074,,,
168,0,-57.001831,-11.993114,-18.275179,68.501205,-13.850367,-15.307747,-44.780663,50.755852,21.886789,110.974464,-2.285804,-70.343407,110.910736,16.516562,-107.616989,,,
169,0,-56.985043,-11.946881,-18.264349,68.511627,-13.822869,-15.271072,-44.807087,50.835144,21.991571,110.973549,-2.285774,-70.343948,110.918762,16.485205,-107.595757,,,
170,0,-56.980083,-11.887595,-18.254910,68.511887,-13.839448,-15.262206,-44.605270,50.856861,22.037729,110.979256,-2.298865,-70.339050,110.919327,16.480309,-107.608635,,,
171,0,-56.970528,-11.865399,-18.227888,68.516701,-13.823635,-15.279317,-44.596405,50.964508,22.127359,110.977966,-2.285828,-70.362175,110.906441,16.506201,-107.666420,,,
172,0,-56.938953,-11.926640,-18.228474,68.517494,-13.831036,-15.298653,-44.750057,50.923901,22.027195,110.979362,-2.232503,-70.379875,110.906807,16.504408,-107.662979,,,
173,0,-56.957310,-11.862189,-18.257549,68.512924,-13.804268,-15.332817,-44.551582,50.885391,22.064487,110.978851,-2.199268,-70.404366,110.897949,16.583467,-107.629112,,,
174,0,-56.958794,-11.850491,-18.244841,68.557655,-13.765710,-15.345658,-44.750454,50.844143,21.933146,110.978470,-2.172149,-70.409454,110.909187,16.643713,-107.697037,,,
175,0,-56.935993,-11.859317,-18.274292,68.566956,-13.724201,-15.339272,-44.561314,50.862896,22.034307,110.998741,-2.153257,-70.410484,110.935089,16.653105,-107.645905,,,
176,0,-56.974010,-11.836618,-18.297300,68.553635,-13.696563,-15.341557,-44.752010,50.877937,21.960110,110.999146,-2.154163,-70.410240,110.935623,16.660244,-107.664268,,,
177,0,-56.953732,-11.836934,-18.328110,68.564331,-13.709102,-15.342118,-44.548065,50.917377,22.036745,111.037086,-2.115776,-70.405670,110.933128,16.660351,-107.635170,,,
178,0,-56.939037,-11.820537,-18.356638,68.573593,-13.699479,-15.320807,-44.573242,50.930496,22.019680,111.046837,-2.100661,-70.378746,110.974533,16.709686,-107.643646,,,
179,0,-56.951069,-11.852750,-18.285841,68.569275,-13.717581,-15.324092,-44.739880,50.868137,21.915098,111.030220,-2.084687,-70.373474,110.927139,16.716084,-107.620491,,,
180,0,-56.955311,-11.760253,-18.325666,68.559311,-13.698232,-15.320827,-44.708466,50.911865,21.897717,111.020744,-2.057281,-70.365082,110.936661,16.771307,-107.669693,,,
181,0,-56.944550,-11.786728,-18.291384,68.576958,-13.684750,-15.301483,-44.502739,50.922745,22.014309,111.019165,-2.032349,-70.368553,110.932816,16.802116,-107.670349,,,
182,0,-56.939842,-11.792661,-18.276670,68.567963,-13.706091,-15.285745,-44.719131,50.927074,21.944969,111.018738,-2.032857,-70.368187,110.935905,16.813597,-107.645546,,,
183,0,-56.931496,-11.869918,-18.288971,68.560829,-13.688927,-15.294904,-44.710148,50.916271,21.936520,111.021469,-2.064509,-70.352280,110.919319,16.750759,-107.621254,,,
184,0,-56.943726,-11.784448,-18.250347,68.555115,-13.696969,-15.305361,-44.567345,50.948822,21.991606,111.015106,-2.061391,-70.374229,110.921364,16.757725,-107.642906,,,
185,0,-56.958683,-11.743291,-18.313864,68.540886,-13.702590,-15.317614,-44.784164,50.965549,21.930285,111.016663,-2.065506,-70.364128,110.920891,16.739847,-107.681198,,,
186,0,-56.976952,-11.898466,-18.381699,68.531563,-13.716039,-15.338805,-44.591335,50.956379,22.002966,110.996811,-2.091376,-70.355965,110.897942,16.726614,-107.662918,,,
187,0,-56.971375,-11.687375,-18.322762,68.535355,-13.688656,-15.342648,-44.571373,50.986099,22.001535,110.997818,-2.076149,-70.362930,110.926613,16.683599,-107.674393,,,
188,0,-56.998581,-11.800756,-18.416281,68.516396,-13.671875,-15.332912,-44.756001,50.904045,21.845524,110.989029,-2.107433,-70.407578,110.932243,16.658533,-107.625641,,,
189,0,-56.986847,-11.796149,-18.336637,68.515884,-13.675005,-15.352496,-44.781193,50.958942,21.917309,110.970848,-2.089170,-70.416458,110.913658,16.668905,-107.654030,,,
190,0,-56.964195,-11.848097,-18.358688,68.505104,-13.650690,-15.367136,-44.584488,50.963207,21.952242,110.974930,-2.084543,-70.408867,110.872650,16.732834,-107.695824,,,
191,0,-57.004772,-11.742852,-18.356268,68.523766,-13.622865,-15.389206,-44.806049,50.924423,21.862089,110.934692,-2.046752,-70.440086,110.841446,16.761454,-107.702843,,,
192,0,-56.994839,-11.737410,-18.323740,68.526695,-13.616420,-15.385009,-44.759830,51.061710,21.960457,110.934395,-2.045915,-70.441185,110.868233,16.771206,-107.720734,,,
193,0,-57.015190,-11.747770,-18.346884,68.511154,-13.579801,-15.389736,-44.812660,51.028751,21.901808,110.918854,-2.012460,-70.462349,110.832138,16.834354,-107.741219,,,
194,0,-56.992855,-11.842393,-18.323458,68.493759,-13.574864,-15.410771,-44.840195,50.912251,21.825832,110.925728,-1.974943,-70.438026,110.812408,16.845085,-107.734520,,,
195,0,-56.972832,-11.814858,-18.343904,68.510071,-13.619405,-15.373476,-44.805149,50.944801,21.850433,110.949593,-1.935367,-70.415413,110.851822,16.877909,-107.677452,,,
196,0,-56.981380,-11.822606,-18.384821,68.538223,-13.607089,-15.348597,-44.841980,50.932224,21.874216,110.954033,-1.930571,-70.407257,110.873276,16.919769,-107.691612,,,
197,0,-56.972076,-11.823532,-18.348593,68.543030,-13.576401,-15.363268,-44.811199,50.913445,21.844629,110.970879,-1.901979,-70.421265,110.855705,16.893616,-107.663521,,,
198,0,-56.987000,-11.799778,-18.338491,68.525032,-13.556506,-15.336136,-44.781723,50.909740,21.880318,111.012428,-1.929241,-70.369781,110.918533,16.933100,-107.665108,,,
199,0,-56.963207,-11.910947,-18.352997,68.546059,-13.574108,-15.316381,-44.767128,50.923363,21.873686,111.035614,-1.920411,-70.347008,110.939537,16.926319,-107.647919,,,
200,0,-56.941532,-11.888957,-18.362343,68.568306,-13.557942,-15.299926,-44.779156,51.016495,21.904797,111.050064,-1.914176,-70.324089,110.939034,16.926910,-107.627518,,,
201,0,-56.927628,-11.775480,-18.271460,68.600311,-13.544415,-15.278989,-44.749634,50.983440,21.842987,111.070480,-1.914042,-70.338409,111.018646,16.872561,-107.615311,,,
202,0,-56.909058,-11.827468,-18.316111,68.608101,-13.539537,-15.266644,-44.542324,51.128178,22.062075,111.073006,-1.918240,-70.297455,111.024017,16.879414,-107.579224,,,
203,0,-56.880718,-11.754886,-18.265440,68.621071,-13.534529,-15.261938,-44.712406,51.026112,21.874584,111.128677,-1.908696,-70.270470,111.068779,16.880285,-107.571648,,,
204,0,-56.880650,-11.756800,-18.264631,68.636749,-13.493324,-15.268902,-44.688225,51.031540,21.893223,111.124596,-1.921620,-70.287460,111.060547,16.893423,-107.607994,,,
205,0,-56.870651,-11.845501,-18.285084,68.627670,-13.520524,-15.274204,-44.499695,51.165928,22.076147,111.129196,-1.910272,-70.269981,111.056068,16.952475,-107.576042,,,
206,0,-56.903683,-11.707487,-18.261364,68.631607,-13.480157,-15.291924,-44.695232,51.073597,21.847084,111.155426,-1.858202,-70.257645,111.079414,16.946924,-107.542290,,,
207,0,-56.898273,-11.767237,-18.311544,68.650497,-13.446589,-15.292878,-44.698551,51.094902,21.842924,111.156693,-1.818611,-70.268661,111.076645,16.997484,-107.546257,,,
208,0,-56.894325,-11.809418,-18.359274,68.665146,-13.456183,-15.250429,-44.555996,51.109283,21.942966,111.157188,-1.818820,-70.268806,111.067108,17.021820,-107.548759,,,
209,0,-56.884563,-11.755563,-18.229967,68.657448,-13.442684,-15.243135,-44.541813,51.123520,21.955265,111.148865,-1.765457,-70.239265,111.090302,17.045486,-107.510689,,,
210,0,-56.874634,-11.732104,-18.199934,68.656967,-13.439154,-15.236876,-44.520874,51.118816,21.943981,111.153343,-1.733442,-70.236290,111.096016,17.055790,-107.518951,,,
211,0,-56.849098,-11.857081,-18.235689,68.687653,-13.412374,-15.248684,-44.687881,51.081814,21.853260,111.152809,-1.731778,-70.237610,111.095993,17.052206,-107.480362,,,
212,0,-56.851772,-11.876563,-18.255764,68.690811,-13.429708,-15.252032,-44.537712,51.211071,22.013691,111.195770,-1.689849,-70.224251,111.114082,17.085123,-107.496017,,,
213,0,-56.852856,-11.794900,-18.263828,68.677696,-13.448210,-15.240469,-44.519058,51.179623,21.962952,111.194038,-1.721644,-70.200111,111.136040,17.077259,-107.482643,,,
214,0,-56.839199,-11.808950,-18.210413,68.692955,-13.393132,-15.217987,-44.514236,51.199993,21.972239,111.247131,-1.747312,-70.197418,111.172325,17.024145,-107.433342,,,
215,0,-56.876705,-11.792392,-18.268776,68.724869,-13.387400,-15.193480,-44.526257,51.252304,22.027590,111.242355,-1.780508,-70.188889,111.172699,17.040398,-107.422707,,,
216,0,-56.856018,-11.822786,-18.272158,68.710640,-13.384548,-15.203533,-44.502262,51.188862,21.939899,111.266487,-1.753317,-70.185883,111.211510,17.060179,-107.414726,,,
217,0,-56.836895,-11.834365,-18.229233,68.726639,-13.365137,-15.208984,-44.667107,51.156010,21.842369,111.301537,-1.767883,-70.156219,111.233429,17.072186,-107.425499,,,
218,0,-56.812958,-11.793441,-18.210238,68.731750,-13.364782,-15.202270,-44.670090,51.224167,21.889696,111.299957,-1.759646,-70.137451,111.232986,17.068750,-107.418045,,,
219,0,-56.875008,-11.762987,-18.300137,68.732437,-13.342218,-15.205648,-44.698349,51.155212,21.842333,111.301552,-1.717094,-70.184608,111.232857,17.073359,-107.427788,,,
220,0,-56.835316,-11.918386,-18.281116,68.736351,-13.341916,-15.221956,-44.657627,51.109669,21.852034,111.302170,-1.718814,-70.183243,111.217033,17.113245,-107.447639,,,
221,0,-56.825916,-11.800928,-18.292444,68.744530,-13.336301,-15.225156,-44.669388,51.179771,21.887232,111.250420,-1.675998,-70.206535,111.239723,17.127960,-107.467651,,,
222,0,-56.769527,-11.855871,-18.161558,68.752670,-13.317849,-15.249241,-44.632957,51.144455,21.865059,111.268463,-1.668200,-70.203773,111.216019,17.131062,-107.465965,,,
223,0,-56.792881,-11.809968,-18.211628,68.753136,-13.343388,-15.263944,-44.458450,51.279926,22.061504,111.267059,-1.657146,-70.224434,111.187500,17.167849,-107.474495,,,
224,0,-56.779888,-11.788702,-18.227041,68.756790,-13.299163,-15.297649,-44.424866,51.326012,22.075653,111.285385,-1.642458,-70.250458,111.189613,17.164484,-107.496078,,,
225,0,-56.739792,-11.732383,-18.225613,68.780998,-13.279862,-15.266627,-44.389835,51.303432,22.021742,111.282791,-1.607377,-70.286713,111.226990,17.184217,-107.540764,,,
226,0,-56.714115,-11.741722,-18.168465,68.770042,-13.269554,-15.267570,-44.414082,51.425064,22.056362,111.282631,-1.607521,-70.286270,111.209328,17.156588,-107.561417,,,
227,0,-56.721889,-11.743587,-18.191072,68.781837,-13.232497,-15.295239,-44.396515,51.420654,22.043579,111.281044,-1.601704,-70.298103,111.203674,17.163561,-107.551407,,,
228,0,-56.730240,-11.688957,-18.209991,68.780396,-13.219785,-15.301259,-44.361912,51.439507,22.027723,111.298401,-1.592841,-70.295815,111.173538,17.211493,-107.596161,,,
229,0,-56.736313,-11.687610,-18.215242,68.826294,-13.175780,-15.302139,-44.367855,51.438740,22.003038,111.287094,-1.535203,-70.305450,111.169930,17.242060,-107.592911,,,
230,0,-56.718956,-11.677472,-18.187103,68.814499,-13.157646,-15.315775,-44.370705,51.446358,22.003441,111.289398,-1.494398,-70.320908,111.181389,17.285593,-107.628876,,,
231,0,-56.749626,-11.677248,-18.242426,68.814346,-13.157455,-15.315976,-44.388142,51.463173,21.994228,111.287453,-1.478258,-70.337669,111.184784,17.287754,-107.576431,,,
232,0,-56.749340,-11.681089,-18.244238,68.788788,-13.139123,-15.331264,-44.356445,51.472504,22.019039,111.290329,-1.487432,-70.307297,111.218201,17.359560,-107.604263,,,
233,0,-56.731220,-11.684631,-18.201479,68.781761,-13.098412,-15.331979,-44.394505,51.439011,22.025478,111.309578,-1.442192,-70.320503,111.223846,17.334261,-107.565727,,,
234,0,-56.745750,-11.708708,-18.233047,68.785744,-13.111972,-15.318645,-44.383820,51.433662,22.021259,111.293282,-1.423302,-70.325645,111.219093,17.410795,-107.563187,,,
235,0,-56.766209,-11.689842,-18.268719,68.788612,-13.098641,-15.317894,-44.392086,51.456367,22.037790,111.293259,-1.421359,-70.327095,111.196800,17.406256,-107.567505,,,
236,0,-56.794006,-11.649152,-18.278759,68.755150,-13.097981,-15.317046,-44.418861,51.490475,22.033133,111.284676,-1.409541,-70.294281,111.189629,17.438274,-107.562775,,,
237,0,-56.784073,-11.642285,-18.176308,68.738518,-13.084817,-15.319042,-44.402679,51.549664,22.043871,111.253380,-1.404391,-70.288795,111.161507,17.381781,-107.546402,,,
238,0,-56.775410,-11.678760,-18.187761,68.744751,-13.098908,-15.308943,-44.404419,51.546448,22.066700,111.245949,-1.453119,-70.290131,111.142448,17.343380,-107.536522,,,
239,0,-56.801815,-11.702104,-18.145844,68.752785,-13.096472,-15.294274,-44.439724,51.531204,22.088902,111.234192,-1.458800,-70.271683,111.095688,17.344631,-107.542831,,,
240,0,-56.809353,-11.639949,-18.192568,68.743050,-13.088238,-15.279881,-44.429325,51.535069,22.088465,111.209641,-1.426626,-70.322227,111.089409,17.337845,-107.543495,,,
241,0,-56.799969,-11.665960,-18.137760,68.742790,-13.089569,-15.279520,-44.416325,51.525604,22.082329,111.248070,-1.434535,-70.301811,111.093567,17.342388,-107.567955,,,
242,0,-56.794270,-11.669081,-18.180439,68.745094,-13.100780,-15.297531,-44.414768,51.531208,22.049706,111.246033,-1.451561,-70.291748,111.115631,17.328968,-107.563324,,,
243,0,-56.811096,-11.681790,-18.215237,68.733727,-13.112989,-15.320364,-44.415676,51.505875,22.063978,111.240654,-1.437389,-70.335243,111.111633,17.326786,-107.578773,,,
244,0,-56.776337,-11.745419,-18.166931,68.758736,-13.086696,-15.316789,-44.401196,51.454124,22.045094,111.246231,-1.456941,-70.300095,111.165207,17.302980,-107.562912,,,
245,0,-56.780895,-11.782720,-18.169188,68.764999,-13.104582,-15.314947,-44.377182,51.445473,22.054073,111.244438,-1.435350,-70.357506,111.137611,17.334396,-107.558372,,,
246,0,-56.794880,-11.764773,-18.189531,68.745651,-13.118408,-15.323415,-44.385273,51.430935,22.041595,111.239647,-1.467568,-70.362259,111.161209,17.299400,-107.577156,,,
247,0,-56.775097,-11.777989,-18.170082,68.776291,-13.101851,-15.325026,-44.357731,51.459084,22.071766,111.239410,-1.468670,-70.360992,111.164024,17.294403,-107.593300,,,
248,0,-56.748775,-11.747156,-18.155132,68.772263,-13.130146,-15.320796,-44.364391,51.477646,22.079252,111.235146,-1.475033,-70.347626,111.161949,17.283670,-107.591148,,,
249,0,-56.779457,-11.736676,-18.174124,68.764404,-13.121554,-15.327368,-44.353962,51.514599,22.054089,111.239830,-1.468945,-70.359985,111.114166,17.318329,-107.587563,,,
250,0,-56.712093,-11.688774,-18.149881,68.777718,-13.119252,-15.323391,-44.339245,51.540691,22.062262,111.240044,-1.446648,-70.372147,111.142654,17.279490,-107.574265,,,
251,0,-56.712112,-11.689225,-18.149584,68.805962,-13.100288,-15.341946,-44.332863,51.562489,22.062416,111.257896,-1.466178,-70.365395,111.172066,17.340382,-107.650742,,,
252,0,-56.711567,-11.693962,-18.153198,68.824768,-13.080336,-15.326385,-44.331562,51.527763,22.031879,111.276100,-1.434688,-70.356468,111.148987,17.348402,-107.605675,,,
253,0,-56.700752,-11.685262,-18.094591,68.828270,-13.038030,-15.337737,-44.298615,51.586414,22.060837,111.294930,-1.411301,-70.362213,111.166199,17.378164,-107.637253,,,
254,0,-56.708271,-11.633704,-18.161795,68.812035,-13.051778,-15.336523,-44.293793,51.598988,22.064972,111.318146,-1.397485,-70.352524,111.191711,17.391556,-107.625999,,,
255,0,-56.696609,-11.633057,-18.157522,68.840752,-13.039704,-15.348511,-44.279358,51.586735,22.005922,111.301270,-1.369342,-70.369545,111.192863,17.393009,-107.633865,,,
256,0,-56.689838,-11.641947,-18.172667,68.843445,-13.035165,-15.368892,-44.272976,51.581326,21.992943,111.322670,-1.329381,-70.394043,111.208633,17.399239,-107.620560,,,
257,0,-56.680164,-11.666418,-18.140022,68.857727,-13.039591,-15.374682,-44.258141,51.589939,21.992029,111.316605,-1.325128,-70.385696,111.221313,17.453974,-107.649666,,,
258,0,-56.686977,-11.671832,-18.133385,68.880867,-12.983216,-15.355953,-44.253139,51.588417,21.994549,111.300591,-1.315613,-70.388832,111.225845,17.459415,-107.664330,,,
259,0,-56.683567,-11.642992,-18.124577,68.875328,-12.971536,-15.363729,-44.241058,51.628605,22.015703,111.304459,-1.317222,-70.419792,111.171944,17.499949,-107.666031,,,
260,0,-56.662712,-11.574894,-18.163782,68.871346,-12.977124,-15.386449,-44.242752,51.625175,22.004591,111.325089,-1.288849,-70.416893,111.189987,17.489702,-107.670929,,,
261,0,-56.631504,-11.632199,-18.096205,68.875114,-12.954434,-15.377025,-44.243011,51.697941,22.018650,111.339622,-1.283736,-70.392662,111.218864,17.459900,-107.657860,,,
262,0,-56.649826,-11.629171,-18.112711,68.885040,-12.925995,-15.353721,-44.233856,51.706841,22.011955,111.339684,-1.284890,-70.391289,111.225449,17.468805,-107.610558,,,
263,0,-56.651058,-11.678066,-18.079865,68.892143,-12.926312,-15.355415,-44.248737,51.713226,22.014732,111.360443,-1.274317,-70.372833,111.270554,17.471601,-107.606285,,,
264,0,-56.657528,-11.624673,-18.128420,68.895172,-12.945157,-15.324617,-44.238300,51.716030,22.019711,111.367889,-1.271978,-70.338409,111.271431,17.465321,-107.615936,,,
265,0,-56.663750,-11.558676,-18.086365,68.904373,-12.948335,-15.279679,-44.282524,51.718197,21.977545,111.404861,-1.276172,-70.324905,111.294914,17.455151,-107.601395,,,
266,0,-56.649574,-11.576474,-18.117649,68.904427,-12.904670,-15.242948,-44.274582,51.783329,22.014812,111.430183,-1.283989,-70.244148,111.329071,17.435736,-107.497185,,,
267,0,-56.636261,-11.578571,-18.081154,68.882111,-12.883235,-15.211308,-44.289783,51.819084,22.000040,111.436798,-1.276747,-70.200539,111.325195,17.478512,-107.472511,,,
268,0,-56.647148,-11.541743,-18.081577,68.877853,-12.878756,-15.198945,-44.318474,51.820221,22.001356,111.403969,-1.232659,-70.170509,111.354965,17.482559,-107.447266,,,
269,0,-56.645424,-11.606635,-17.997091,68.867897,-12.864441,-15.132145,-44.302074,51.873108,22.044640,111.432617,-1.220173,-70.117104,111.348190,17.539358,-107.404495,,,
270,0,-56.660522,-11.588798,-18.013483,68.868317,-12.870275,-15.094485,-44.341774,51.816399,22.058157,111.443375,-1.210480,-70.081322,111.361961,17.530535,-107.335785,,,
271,0,-56.679970,-11.579936,-18.054464,68.846992,-12.835093,-15.073179,-44.347855,51.845333,22.058741,111.452538,-1.190995,-70.011490,111.383995,17.562307,-107.285019,,,
272,0,-56.679607,-11.551966,-17.983610,68.861763,-12.788739,-15.065438,-44.382668,51.837048,22.077082,111.438202,-1.135920,-70.008041,111.377831,17.614580,-107.291039,,,
273,0,-56.684296,-11.579659,-18.016392,68.875618,-12.772799,-15.023056,-44.365124,51.807800,22.058693,111.461380,-1.123231,-69.980293,111.381760,17.633411,-107.240746,,,
274,0,-56.664711,-11.599285,-17.984221,68.876740,-12.776118,-15.014903,-44.381298,51.826847,22.083237,111.464973,-1.119925,-69.971535,111.426735,17.649595,-107.165222,,,
275,0,-56.664146,-11.603326,-17.986294,68.884682,-12.770266,-15.015521,-44.367611,51.800056,22.023708,111.502144,-1.052407,-69.938766,111.469170,17.691236,-107.183861,,,
276,0,-56.666733,-11.575633,-17.997383,68.916840,-12.724956,-15.022216,-44.381901,51.853092,22.073898,111.529831,-1.039214,-69.936913,111.483398,17.719435,-107.203865,,,
277,0,-56.609535,-11.585797,-17.972898,68.953156,-12.695640,-15.015361,-44.330143,51.827602,22.061878,111.551628,-1.019397,-69.921089,111.551979,17.770798,-107.179413,,,
278,0,-56.590511,-11.589984,-17.977772,68.970421,-12.681039,-14.990601,-44.324539,51.825703,22.060186,111.586838,-1.016438,-69.879433,111.550171,17.813345,-107.146088,,,
279,0,-56.566235,-11.630739,-17.933016,69.002159,-12.656688,-14.936172,-44.304111,51.840946,22.039730,111.672012,-0.905052,-69.792267,111.626427,17.826864,-107.014549,,,
280,0,-56.553612,-11.539280,-17.951048,69.036400,-12.598009,-14.836754,-44.274139,51.895237,22.038006,111.729515,-0.883202,-69.692497,111.715309,17.894089,-106.936005,,,
281,0,-56.475597,-11.550470,-17.931198,69.090652,-12.547907,-14.730544,-44.299938,51.919193,22.014769,111.749290,-0.808059,-69.594063,111.841690,17.978676,-106.733238,,,
282,0,-56.472816,-11.567976,-17.911011,69.136330,-12.500875,-14.580330,-44.293377,51.957340,22.012314,112.030624,-0.728442,-69.253380,112.093399,18.026020,-106.462326,,,
283,0,-56.464668,-11.517865,-17.902203,69.177711,-12.468061,-14.330097,-44.289242,52.017059,22.043316,112.180672,-0.694871,-68.889397,112.312683,18.048088,-106.133385,,,
284,0,-56.430786,-11.479055,-17.809010,69.240196,-12.439994,-14.027788,-44.521782,51.887508,22.142218,112.355652,-0.636098,-68.463646,112.600868,18.100925,-105.721703,,,
285,0,-56.399391,-11.387335,-17.757200,69.300095,-12.359941,-13.700787,-44.385860,52.117050,22.180378,112.598404,-0.611775,-67.989090,112.869576,18.127619,-105.296837,,,
286,0,-56.366211,-11.341845,-17.632912,69.330139,-12.326215,-13.302176,-44.428638,52.173702,22.240770,112.762276,-0.595012,-67.474434,113.153809,18.244566,-104.779526,,,
287,0,-56.400436,-11.254929,-17.544245,69.404922,-12.222548,-12.878603,-44.488567,52.285709,22.277294,112.994461,-0.503660,-66.943794,113.479271,18.292759,-104.246742,,,
288,0,-56.365582,-11.166549,-17.433126,69.447052,-12.107872,-12.434593,-44.498505,52.443970,22.317305,113.215164,-0.430638,-66.305687,113.791992,18.430429,-103.677818,,,
289,0,-56.352623,-11.067669,-17.255434,69.471451,-11.997121,-12.024934,-44.626213,52.563526,22.464893,113.455238,-0.301772,-65.734604,114.089027,18.493195,-103.116821,,,
290,0,-56.300758,-10.903366,-17.118107,69.481712,-11.836359,-11.619536,-44.694782,52.744404,22.626265,113.660416,-0.220379,-65.185997,114.460175,18.568851,-102.602905,,,
291,0,-56.320103,-10.812682,-16.974442,69.534653,-11.681492,-11.213180,-44.685268,52.924229,22.723362,113.846535,-0.041496,-64.666794,114.782150,18.681982,-102.063431,,,
292,0,-56.272095,-10.654632,-16.878973,69.595238,-11.488692,-10.885908,-44.732872,53.052402,22.814276,114.014748,0.084571,-64.189758,115.040955,18.796612,-101.617081,,,
293,0,-56.261150,-10.578449,-16.750347,69.627022,-11.306169,-10.600802,-44.739216,53.220333,22.912323,114.162918,0.274918,-63.832829,115.262131,18.965557,-101.236992,,,
294,0,-56.146358,-10.508688,-16.609324,69.678726,-11.087389,-10.354569,-44.756523,53.408115,22.934513,114.289612,0.507831,-63.499012,115.449112,19.220243,-100.919052,,,
295,0,-56.121029,-10.442178,-16.532570,69.722740,-10.891164,-10.152649,-44.727657,53.515701,23.011585,114.397789,0.734922,-63.264229,115.566864,19.516533,-100.730919,,,
296,0,-56.072575,-10.327879,-16.490204,69.793793,-10.677692,-10.009359,-44.721024,53.633038,23.010893,114.510765,0.980138,-63.082008,115.672485,19.788040,-100.507996,,,
297,0,-56.055653,-10.227533,-16.382032,69.839745,-10.495803,-9.954123,-44.747181,53.754192,23.022728,114.588104,1.232296,-62.974541,115.722847,20.059986,-100.400505,,,
298,0,-55.974113,-10.176645,-16.332401,69.898018,-10.302643,-9.918871,-44.708336,53.858425,23.082771,114.577576,1.488313,-62.951244,115.766373,20.299810,-100.324730,,,
299,0,-55.965820,-10.125796,-16.325907,69.954750,-10.151891,-9.936019,-44.699612,54.019173,23.107224,114.603142,1.733316,-62.963627,115.737442,20.538254,-100.330536,,,
300,0,-55.959610,-9.996079,-16.365204,69.970894,-10.015721,-9.991554,-44.686905,53.964851,23.016989,114.594376,1.895194,-63.055305,115.674713,20.793158,-100.465904,,,
301,0,-55.938267,-9.983704,-16.361454,69.978012,-9.892289,-10.091716,-44.664982,54.097412,23.077646,114.575714,2.075328,-63.200108,115.673553,20.931248,-100.531441,,,
302,0,-55.921272,-9.957448,-16.376568,69.985847,-9.798564,-10.189932,-44.659267,54.093758,23.026066,114.500702,2.200375,-63.341251,115.568924,21.107014,-100.680161,,,
303,0,-55.911339,-9.930054,-16.354916,69.988739,-9.757815,-10.296722,-44.639275,54.139126,23.013510,114.434479,2.248879,-63.484913,115.458183,21.102203,-100.845802,,,
304,0,-55.900921,-9.949768,-16.380125,69.979584,-9.762386,-10.392492,-44.631649,54.144360,22.974379,114.400436,2.269203,-63.628265,115.346977,21.131334,-100.996918,,,
305,0,-55.933674,-9.966487,-16.400393,69.953979,-9.756221,-10.483221,-44.626930,54.136448,22.928469,114.309593,2.288018,-63.827023,115.250931,21.080896,-101.147758,,,
306,0,-55.942719,-9.961793,-16.435240,69.953239,-9.799938,-10.573092,-44.632202,54.123642,22.954655,114.222054,2.243453,-63.943394,115.115654,21.061962,-101.338821,,,
307,0,-55.953663,-9.943140,-16.484802,69.910797,-9.838430,-10.675406,-44.615078,54.064850,22.941126,114.174965,2.169761,-64.094490,115.015694,20.981686,-101.489723,,,
308,0,-55.952583,-9.960675,-16.523064,69.869843,-9.909308,-10.766344,-44.599274,54.022789,22.926945,114.097733,2.111136,-64.220123,114.945290,20.863346,-101.626274,,,
309,0,-55.964638,-10.033694,-16.529778,69.872597,-9.979140,-10.851378,-44.611214,53.999744,22.918715,114.037788,1.984235,-64.334763,114.872925,20.726625,-101.736084,,,
310,0,-55.989010,-10.086478,-16.606289,69.835510,-10.036806,-10.898113,-44.618225,53.894470,22.909412,113.981369,1.848248,-64.417763,114.778084,20.642939,-101.831367,,,
311,0,-56.001175,-10.105106,-16.621954,69.828842,-10.139389,-10.962804,-44.638706,53.830929,22.894024,113.957832,1.795292,-64.537125,114.739052,20.519949,-101.924576,,,
312,0,-55.966694,-10.155975,-16.630957,69.827515,-10.208233,-10.994894,-44.586800,53.802422,22.943501,113.915115,1.696496,-64.599548,114.669655,20.452761,-101.980835,,,
313,0,-55.979366,-10.132189,-16.643661,69.856468,-10.273929,-11.028191,-44.611115,53.731667,22.947670,113.901962,1.604372,-64.660507,114.672295,20.360109,-102.053070,,,
314,0,-55.909172,-10.113708,-16.663429,69.858391,-10.300697,-11.098731,-44.523582,53.674759,22.921120,113.925285,1.553341,-64.694359,114.636726,20.353394,-102.130013,,,
315,0,-55.946117,-10.117139,-16.716724,69.892426,-10.342777,-11.120189,-44.513924,53.660122,22.955446,113.932449,1.545151,-64.764214,114.661919,20.308815,-102.139687,,,
316,0,-55.904423,-10.053238,-16.780107,69.931458,-10.349981,-11.144048,-44.485836,53.640308,22.942833,113.956200,1.519350,-64.808617,114.702248,20.297930,-102.201309,,,
317,0,-55.882816,-10.061098,-16.749798,69.953758,-10.350842,-11.178288,-44.399464,53.671070,22.954611,113.992653,1.575686,-64.815491,114.744102,20.339235,-102.184349,,,
318,0,-55.832607,-10.038358,-16.727755,70.037430,-10.264860,-11.201119,-44.377262,53.703796,22.945620,114.051712,1.615851,-64.853531,114.822815,20.444761,-102.235977,,,
319,0,-55.774254,-10.049050,-16.703632,70.102455,-10.218096,-11.186708,-44.321201,53.758640,22.939356,114.110771,1.718821,-64.821671,114.876190,20.553247,-102.197662,,,
320,0,-55.732273,-10.042875,-16.697481,70.138596,-10.146922,-11.158658,-44.308620,53.804447,22.964952,114.180214,1.820283,-64.783241,114.921555,20.718679,-102.163086,,,
321,0,-55.708851,-9.917608,-16.723217,70.203201,-10.043236,-11.124615,-44.272541,53.918457,22.943121,114.276489,1.987583,-64.723526,115.031403,20.868837,-102.042358,,,
322,0,-55.682480,-9.908327,-16.725792,70.259621,-9.917159,-11.095100,-44.262806,53.964825,22.924788,114.356873,2.133000,-64.616135,115.169586,21.078182,-101.949341,,,
323,0,-55.598881,-9.898231,-16.677153,70.348869,-9.813654,-11.024286,-44.192642,53.999928,22.909185,114.509789,2.346046,-64.511612,115.302689,21.289492,-101.837593,,,
324,0,-55.498756,-9.903041,-16.598684,70.421692,-9.720720,-10.992023,-44.143719,53.970531,22.886686,114.625587,2.474963,-64.392151,115.443825,21.477079,-101.704842,,,
325,0,-55.459896,-9.857327,-16.573343,70.453964,-9.670991,-10.903418,-44.138050,54.035336,22.988739,114.695946,2.600395,-64.283600,115.561081,21.608727,-101.556686,,,
326,0,-55.452045,-9.797206,-16.554989,70.506821,-9.615287,-10.848098,-44.096661,54.064964,22.992634,114.767235,2.690464,-64.181602,115.641098,21.756613,-101.453812,,,
327,0,-55.422066,-9.798517,-16.503836,70.543533,-9.567654,-10.777652,-44.085838,54.091820,22.992180,114.800613,2.745598,-64.074783,115.720314,21.795631,-101.326462,,,
328,0,-55.423779,-9.770158,-16.516230,70.539169,-9.545245,-10.712738,-44.077618,54.127464,23.001741,114.858986,2.777936,-64.023567,115.758095,21.872868,-101.295944,,,
329,0,-55.452450,-9.737606,-16.502989,70.542236,-9.532604,-10.685843,-44.092545,54.171337,22.974125,114.850334,2.767050,-63.968994,115.786400,21.842426,-101.235229,,,
330,0,-55.469395,-9.752124,-16.437721,70.525848,-9.525528,-10.642870,-44.083237,54.292118,23.005077,114.856430,2.709205,-63.923164,115.806702,21.765011,-101.206856,,,
331,0,-55.484558,-9.682821,-16.452934,70.497345,-9.516903,-10.619009,-44.121807,54.309185,22.980480,114.813515,2.695124,-63.918129,115.784195,21.708691,-101.212288,,,
332,0,-55.556870,-9.677305,-16.489456,70.449028,-9.518644,-10.663987,-44.194454,54.286476,22.968004,114.734604,2.659437,-63.948074,115.675499,21.668312,-101.275337,,,
333,0,-55.572594,-9.733152,-16.499252,70.376999,-9.535413,-10.730299,-44.222275,54.256618,22.940010,114.689346,2.652896,-64.043625,115.607529,21.588894,-101.372307,,,
334,0,-55.567410,-9.787550,-16.539915,70.318657,-9.574833,-10.809045,-44.243786,54.140213,22.906757,114.570137,2.606575,-64.158615,115.464211,21.555099,-101.503136,,,
335,0,-55.608749,-9.806211,-16.613136,70.269302,-9.648580,-10.951148,-44.306042,54.130230,22.877823,114.471596,2.552701,-64.320869,115.345879,21.521383,-101.633614,,,
336,0,-55.691216,-9.897964,-16.671707,70.198196,-9.726434,-11.092892,-44.340061,54.070709,22.884071,114.337677,2.531452,-64.542458,115.144371,21.544340,-101.818489,,,
337,0,-55.742905,-9.903563,-16.757242,70.148697,-9.800772,-11.225920,-44.334240,54.004154,22.925203,114.203194,2.460905,-64.714203,114.980232,21.456806,-102.013870,,,
338,0,-55.784653,-9.922741,-16.828529,70.118042,-9.885373,-11.350239,-44.370647,53.922703,22.888535,114.116417,2.402650,-64.941422,114.785278,21.380705,-102.239372,,,
339,0,-55.818493,-10.009280,-16.870663,70.088280,-9.977375,-11.500059,-44.385307,53.804375,22.851957,114.023224,2.291103,-65.120987,114.697495,21.263266,-102.373367,,,
340,0,-55.821827,-10.004029,-16.937130,70.052361,-10.062786,-11.629353,-44.329464,53.767113,22.811134,113.954453,2.169975,-65.328362,114.604118,21.133194,-102.567322,,,
341,0,-55.835232,-10.029787,-16.956326,70.056152,-10.147129,-11.725444,-44.326214,53.729454,22.748638,113.905441,2.010848,-65.457466,114.515785,20.938515,-102.729256,,,
342,0,-55.831306,-10.108916,-17.049112,70.041420,-10.267061,-11.833380,-44.324303,53.655308,22.726809,113.890106,1.826890,-65.572609,114.480263,20.758957,-102.867775,,,
343,0,-55.825500,-10.103171,-17.102188,70.028854,-10.383279,-11.918485,-44.277031,53.600487,22.706242,113.881622,1.695937,-65.663460,114.464027,20.594688,-102.976646,,,
344,0,-55.779728,-10.193205,-17.111425,70.053520,-10.420814,-11.956507,-44.272118,53.579792,22.648163,113.887230,1.525030,-65.721352,114.478249,20.392717,-103.039124,,,
345,0,-55.739773,-10.179490,-17.100208,70.075768,-10.497229,-11.963253,-44.221428,53.591549,22.707022,113.885468,1.419856,-65.752983,114.507774,20.257036,-103.101929,,,
346,0,-55.750385,-10.203349,-17.119188,70.067795,-10.527431,-11.994500,-44.211117,53.613091,22.722725,113.909439,1.367546,-65.786652,114.498688,20.141838,-103.126266,,,
347,0,-55.718021,-10.171157,-17.156281,70.100121,-10.546475,-12.024811,-44.211487,53.600513,22.701752,113.922653,1.326126,-65.834404,114.525940,20.096304,-103.130692,,,
348,0,-55.695408,-10.179894,-17.154953,70.113297,-10.540531,-12.058278,-44.382370,53.395073,22.716526,113.966461,1.296111,-65.837494,114.541588,20.088902,-103.187592,,,
349,0,-55.675690,-10.171166,-17.156919,70.160675,-10.504759,-12.051295,-44.198853,53.571709,22.693054,113.976753,1.376570,-65.862358,114.560432,20.164597,-103.169029,,,
350,0,-55.640850,-10.168415,-17.126417,70.169594,-10.468836,-12.043124,-44.344021,53.453213,22.720009,114.015259,1.411103,-65.838104,114.603477,20.206688,-103.176270,,,
351,0,-55.635357,-10.147560,-17.114603,70.197639,-10.392547,-12.040193,-44.188583,53.652031,22.650383,114.024841,1.512773,-65.833633,114.618874,20.334425,-103.198586,,,
352,0,-55.666840,-10.074471,-17.132742,70.197716,-10.343515,-12.045975,-44.185516,53.689777,22.620674,114.054878,1.636973,-65.832161,114.605728,20.465670,-103.132660,,,
353,0,-55.661469,-10.043818,-17.093603,70.201057,-10.211437,-12.034495,-44.169830,53.787949,22.656034,114.058731,1.768150,-65.793045,114.660934,20.618935,-103.109673,,,
354,0,-55.655014,-9.970675,-17.099056,70.211060,-10.123707,-12.022680,-44.182186,53.867416,22.628328,114.062019,1.902623,-65.764931,114.649109,20.788765,-103.071060,,,
355,0,-55.665493,-9.989204,-17.030663,70.199738,-10.047264,-11.999819,-44.151421,53.919411,22.641994,114.081230,2.018992,-65.734268,114.632118,20.953234,-103.011765,,,
356,0,-55.644032,-9.979518,-16.967754,70.224976,-9.938089,-11.931818,-44.195374,53.958298,22.643637,114.061691,2.115437,-65.671410,114.645622,21.081818,-102.982376,,,
357,0,-55.648148,-9.899795,-16.988556,70.198212,-9.856788,-11.912642,-44.152424,53.972912,22.664089,114.063721,2.247370,-65.635010,114.658844,21.176826,-102.971558,,,
358,0,-55.650654,-9.980141,-16.925156,70.210831,-9.837967,-11.877614,-44.205795,54.005592,22.700607,114.066544,2.335385,-65.595001,114.677711,21.264771,-102.893311,,,
359,0,-55.682640,-9.945923,-16.928492,70.193771,-9.825545,-11.849342,-44.199066,53.969234,22.632139,114.067749,2.331945,-65.534325,114.665062,21.335333,-102.830467,,,
360,0,-55.693359,-9.965881,-16.857565,70.185486,-9.850682,-11.824232,-44.201492,54.007694,22.676727,114.058754,2.360174,-65.506126,114.710121,21.346502,-102.801178,,,
361,0,-55.711754,-9.935480,-16.877167,70.194771,-9.874393,-11.800362,-44.206062,53.995403,22.695446,114.075203,2.330730,-65.492050,114.668419,21.303259,-102.763107,,,
362,0,-55.716209,-9.972386,-16.913158,70.179131,-9.879208,-11.787257,-44.201454,54.028069,22.698225,114.070099,2.262488,-65.484749,114.717140,21.262497,-102.794807,,,
363,0,-55.738434,-9.967942,-16.921301,70.168816,-9.927872,-11.783430,-44.182858,54.001812,22.690071,114.030815,2.229256,-65.489746,114.682159,21.153143,-102.797249,,,
364,0,-55.760250,-9.962291,-16.950844,70.149094,-9.961401,-11.779409,-44.205971,53.993290,22.688990,114.023361,2.117978,-65.480629,114.691925,21.056877,-102.798386,,,
365,0,-55.765144,-9.981433,-17.000967,70.130539,-10.003083,-11.823984,-44.232010,53.904762,22.659975,114.021278,2.024090,-65.516891,114.679848,20.956919,-102.800049,,,
366,0,-55.796543,-9.962288,-17.023678,70.099091,-10.074404,-11.863540,-44.269741,53.886757,22.631916,114.007935,1.958531,-65.568764,114.594604,20.860653,-102.854645,,,
367,0,-55.770439,-10.006025,-17.025362,70.105080,-10.104181,-11.895477,-44.224304,53.946053,22.642868,113.962555,1.908873,-65.638092,114.572441,20.796814,-102.960976,,,
368,0,-55.778439,-10.013103,-17.042551,70.088806,-10.140544,-11.935843,-44.245815,53.885387,22.580893,113.928078,1.878519,-65.706589,114.516235,20.760492,-103.044701,,,
369,0,-55.775787,-9.986271,-17.061768,70.084602,-10.126946,-11.998123,-44.313988,53.863800,22.610197,113.874756,1.864586,-65.790771,114.454605,20.704870,-103.077560,,,
370,0,-55.765110,-10.072523,-17.084997,70.064705,-10.165782,-12.081147,-44.297260,53.905529,22.655750,113.867622,1.845006,-65.848831,114.429489,20.688663,-103.170067,,,
371,0,-55.840847,-10.032244,-17.169159,70.055397,-10.201862,-12.128078,-44.550457,53.572643,22.590288,113.860199,1.845273,-65.939209,114.392258,20.732843,-103.232285,,,
372,0,-55.807510,-10.032335,-17.143829,70.054176,-10.191503,-12.165838,-44.361572,53.766800,22.608299,113.836197,1.841518,-65.973938,114.390152,20.722458,-103.254944,,,
373,0,-55.813416,-10.039697,-17.201952,70.064545,-10.198011,-12.166203,-44.333286,53.758686,22.621883,113.831863,1.835934,-65.983078,114.361412,20.736563,-103.295647,,,
374,0,-55.771790,-10.079756,-17.154530,70.069710,-10.215651,-12.182407,-44.342846,53.738079,22.615463,113.836533,1.843130,-65.975304,114.385864,20.740702,-103.286011,,,
375,0,-55.751110,-10.076510,-17.159904,70.100609,-10.201598,-12.187532,-44.304329,53.743427,22.655972,113.871231,1.850415,-65.968468,114.410294,20.754854,-103.261467,,,
376,0,-55.741482,-10.051376,-17.141142,70.131020,-10.214375,-12.146409,-44.276600,53.744312,22.606201,113.928719,1.867708,-65.958725,114.437172,20.758471,-103.228592,,,
377,0,-55.741600,-10.037760,-17.142570,70.158966,-10.223162,-12.121588,-44.258667,53.777702,22.650156,113.962769,1.871071,-65.907608,114.530090,20.708384,-103.173897,,,
378,0,-55.734676,-10.036539,-17.101149,70.185272,-10.226730,-12.078929,-44.249081,53.797642,22.658588,113.990005,1.831210,-65.832069,114.575127,20.710403,-103.132393,,,
379,0,-55.680756,-10.061732,-17.071522,70.211868,-10.222642,-12.058539,-44.208668,53.799538,22.609556,114.066788,1.832895,-65.804817,114.651123,20.696287,-103.062592,,,
380,0,-55.662567,-10.092312,-17.053625,70.261597,-10.190739,-12.017972,-44.162251,53.791916,22.584143,114.081177,1.848704,-65.768616,114.672768,20.693741,-103.062576,,,
381,0,-55.624580,-10.057779,-17.062613,70.258835,-10.188883,-11.997092,-44.169113,53.821541,22.625956,114.098076,1.832785,-65.754936,114.720520,20.701992,-103.023743,,,
382,0,-55.623825,-10.061525,-17.064718,70.283028,-10.189140,-12.000422,-44.137306,53.812546,22.584322,114.138741,1.864913,-65.739731,114.747360,20.701286,-103.008102,,,
383,0,-55.635826,-10.075907,-17.074333,70.316727,-10.174120,-11.984965,-44.129345,53.841919,22.636202,114.165466,1.888050,-65.711601,114.790810,20.743771,-102.994057,,,
384,0,-55.573315,-10.072948,-17.052214,70.339516,-10.157920,-12.000092,-44.263088,53.697044,22.661385,114.165680,1.881578,-65.751450,114.806160,20.789473,-103.029900,,,
385,0,-55.555794,-10.070968,-17.052427,70.351768,-10.146921,-12.000628,-44.247223,53.701042,22.634878,114.194908,1.912726,-65.775253,114.812996,20.832094,-103.079323,,,
386,0,-55.541355,-10.074684,-17.017109,70.371704,-10.104230,-12.046686,-44.239429,53.695011,22.652552,114.197624,1.954841,-65.821953,114.791199,20.840086,-103.091797,,,
387,0,-55.534599,-10.076763,-17.025370,70.386177,-10.078475,-12.057896,-44.069603,53.824135,22.585026,114.201080,1.981941,-65.838654,114.769524,20.869640,-103.098625,,,
388,0,-55.505081,-10.081018,-17.014692,70.387505,-10.066448,-12.071402,-44.049004,53.894608,22.620272,114.201134,2.005567,-65.849304,114.767944,20.884428,-103.106232,,,
389,0,-55.535343,-10.013114,-17.033852,70.384529,-10.051583,-12.070785,-44.039490,53.886658,22.545454,114.205643,2.036406,-65.879601,114.777061,20.958609,-103.172585,,,
390,0,-55.530064,-10.048478,-17.025785,70.395798,-10.017222,-12.072087,-44.227882,53.749554,22.560799,114.228073,2.040550,-65.853210,114.802002,20.959414,-103.159935,,,
391,0,-55.546856,-10.030036,-17.045141,70.387238,-9.986015,-12.078255,-44.227646,53.784870,22.581474,114.230896,2.087638,-65.825623,114.807594,20.951593,-103.124016,,,
392,0,-55.544159,-9.999987,-17.044344,70.394371,-9.961816,-12.045451,-44.231991,53.815632,22.575478,114.223015,2.090201,-65.776924,114.854691,20.966042,-103.042297,,,
393,0,-55.533504,-9.981261,-17.028521,70.385933,-9.968025,-11.996760,-44.080231,53.933182,22.498995,114.263481,2.104523,-65.729500,114.875275,20.978666,-103.031555,,,
394,0,-55.542782,-10.000093,-17.013380,70.366074,-9.971912,-11.954455,-44.273693,53.816875,22.623903,114.271957,2.112194,-65.669632,114.904778,20.976940,-102.971588,,,
395,0,-55.585014,-9.954510,-17.023996,70.375015,-9.942987,-11.909177,-44.261822,53.824932,22.616421,114.269455,2.135857,-65.623283,114.923668,21.063631,-102.884926,,,
396,0,-55.580856,-9.972020,-16.973122,70.370682,-9.942457,-11.821139,-44.111271,53.946766,22.559029,114.312775,2.151752,-65.523521,114.950119,21.083689,-102.822563,,,
397,0,-55.574741,-9.967833,-16.957142,70.381760,-9.934264,-11.749257,-44.109856,54.002045,22.574127,114.361656,2.167522,-65.408600,115.010986,21.087690,-102.725357,,,
398,0,-55.596867,-9.956063,-16.992840,70.373016,-9.923328,-11.690664,-44.310139,53.832520,22.557734,114.398727,2.169942,-65.305237,115.089653,21.082994,-102.623161,,,
399,0,-55.620052,-9.884899,-16.970491,70.345558,-9.922962,-11.606132,-44.327271,53.896347,22.567711,114.463318,2.162549,-65.147408,115.171272,21.087961,-102.472115,,,
400,0,-55.628185,-9.880433,-16.963123,70.375427,-9.916405,-11.554547,-44.342445,53.904800,22.584927,114.499718,2.161290,-65.049278,115.275703,21.093760,-102.367165,,,
401,0,-55.631958,-9.844032,-16.968796,70.387283,-9.901750,-11.482920,-44.332001,53.926109,22.640791,114.541832,2.157040,-64.961861,115.340988,21.103724,-102.283554,,,
402,0,-55.617958,-9.847431,-16.932783,70.402817,-9.864020,-11.412029,-44.160122,54.098667,22.617298,114.604393,2.157093,-64.867340,115.402290,21.108940,-102.191505,,,
403,0,-55.621490,-9.872901,-16.929277,70.397934,-9.863966,-11.367274,-44.359009,53.972565,22.681852,114.620239,2.180927,-64.804451,115.473534,21.123478,-102.093391,,,
404,0,-55.642883,-9.857132,-16.934349,70.418823,-9.847512,-11.328883,-44.212368,54.085400,22.580746,114.664345,2.183062,-64.713051,115.529007,21.114367,-102.033447,,,
405,0,-55.601837,-9.841371,-16.908772,70.423599,-9.850458,-11.268361,-44.149548,54.034309,22.524475,114.673218,2.213110,-64.668709,115.536827,21.130533,-101.985764,,,
406,0,-55.597836,-9.811062,-16.877731,70.422821,-9.805427,-11.274271,-44.168930,54.082325,22.563013,114.697510,2.225152,-64.657822,115.555664,21.141525,-101.971924,,,
407,0,-55.570976,-9.854340,-16.842253,70.426788,-9.828034,-11.287867,-44.118706,54.142113,22.609829,114.691231,2.264336,-64.711823,115.570854,21.206331,-101.997467,,,
408,0,-55.561726,-9.823077,-16.848257,70.439034,-9.818975,-11.312353,-44.109718,54.154179,22.567051,114.670517,2.276320,-64.727943,115.512367,21.210491,-102.072166,,,
409,0,-55.587135,-9.778537,-16.848391,70.447601,-9.778243,-11.352450,-44.103333,54.146919,22.592602,114.646729,2.298381,-64.808868,115.459602,21.237137,-102.103264,,,
410,0,-55.543983,-9.789817,-16.881861,70.467461,-9.783933,-11.402990,-44.292133,53.983234,22.595737,114.602882,2.321260,-64.881454,115.422508,21.242323,-102.220573,,,
411,0,-55.516457,-9.800808,-16.852598,70.475410,-9.779135,-11.494896,-44.228916,53.968639,22.605858,114.608795,2.346346,-65.019287,115.364471,21.243908,-102.308502,,,
412,0,-55.541218,-9.769548,-16.949495,70.486504,-9.722911,-11.595062,-44.211693,54.064869,22.566183,114.574509,2.320033,-65.110649,115.291588,21.254036,-102.423683,,,
413,0,-55.546532,-9.781484,-16.969994,70.479706,-9.752708,-11.655445,-44.212044,54.014629,22.555702,114.535835,2.320038,-65.256142,115.222725,21.272995,-102.571266,,,
414,0,-55.555351,-9.783893,-17.017967,70.487968,-9.737021,-11.749313,-44.168762,53.996883,22.519711,114.490158,2.292819,-65.348755,115.161194,21.285555,-102.671013,,,
415,0,-55.517029,-9.854489,-16.959387,70.495193,-9.746411,-11.863590,-44.151554,54.005589,22.538412,114.487793,2.292123,-65.480209,115.161476,21.221889,-102.765709,,,
416,0,-55.504269,-9.836416,-16.998795,70.509331,-9.762200,-11.930331,-43.943485,54.178154,22.505539,114.424355,2.261473,-65.580475,115.110588,21.186647,-102.871956,,,
417,0,-55.526413,-9.790360,-17.099754,70.500404,-9.772528,-11.975905,-44.141571,54.032520,22.534807,114.398804,2.255074,-65.667564,115.034660,21.193678,-102.964607,,,
418,0,-55.492924,-9.835704,-17.083153,70.492836,-9.831753,-12.022249,-44.128090,54.016037,22.507895,114.384567,2.269271,-65.744995,114.977081,21.112335,-103.045280,,,
419,0,-55.493526,-9.830764,-17.079613,70.485695,-9.831353,-12.071705,-44.138153,53.997055,22.524153,114.356049,2.210408,-65.812981,114.951950,21.088413,-103.092560,,,
420,0,-55.511734,-9.814920,-17.098103,70.499695,-9.840796,-12.074411,-44.147022,53.902515,22.497650,114.347183,2.174347,-65.823593,114.901100,21.082422,-103.169724,,,
421,0,-55.487057,-9.889360,-17.082449,70.491058,-9.858176,-12.108977,-44.129562,53.921085,22.523903,114.338081,2.126114,-65.852730,114.930077,21.029045,-103.192390,,,
422,0,-55.505051,-9.863096,-17.081123,70.473038,-9.887653,-12.100983,-44.126919,53.924747,22.569880,114.300468,2.103811,-65.864067,114.906494,20.997696,-103.158363,,,
423,0,-55.519199,-9.864668,-17.090765,70.439247,-9.914653,-12.110044,-44.147156,53.928768,22.569012,114.301743,2.121198,-65.861061,114.885246,20.946619,-103.173874,,,
424,0,-55.525055,-9.818739,-17.088392,70.433052,-9.902065,-12.098834,-44.155449,53.905209,22.519117,114.297485,2.066366,-65.851700,114.909950,20.935682,-103.158516,,,
425,0,-55.533257,-9.811686,-17.102417,70.440231,-9.910229,-12.097421,-44.165260,53.950058,22.575300,114.297821,2.057649,-65.854073,114.892311,20.964790,-103.127525,,,
426,0,-55.538105,-9.821870,-17.126987,70.417137,-9.905085,-12.083354,-44.155758,53.912560,22.576897,114.299339,2.066121,-65.800034,114.895096,20.952978,-103.103951,,,
427,0,-55.549194,-9.846773,-17.147013,70.410667,-9.923456,-12.059944,-44.033657,54.058331,22.520319,114.274696,2.081531,-65.775002,114.893135,20.953611,-103.101662,,,
428,0,-55.553982,-9.818439,-17.128698,70.420746,-9.902681,-12.063858,-44.194363,53.908184,22.530184,114.308907,2.107053,-65.780205,114.893234,20.960573,-103.061867,,,
429,0,-55.561607,-9.806371,-17.114706,70.415825,-9.868789,-12.044633,-44.046474,54.045624,22.446848,114.297142,2.114500,-65.777817,114.894226,20.968639,-103.087837,,,
430,0,-55.535175,-9.836085,-17.079527,70.421730,-9.863412,-12.058079,-44.221294,53.840576,22.430250,114.280853,2.130703,-65.771881,114.941811,21.029175,-103.090622,,,
431,0,-55.526688,-9.843700,-17.090080,70.373894,-9.869740,-12.070354,-44.198013,53.880127,22.487522,114.297958,2.179566,-65.781769,114.904617,21.081882,-103.075058,,,
432,0,-55.540581,-9.902299,-17.138573,70.402977,-9.900805,-12.078088,-44.227222,53.926228,22.569643,114.278664,2.188538,-65.801186,114.878639,21.079121,-103.109596,,,
433,0,-55.553196,-9.813025,-17.123814,70.424820,-9.842189,-12.091071,-44.218887,53.986515,22.534874,114.251587,2.217329,-65.833618,114.851463,21.108114,-103.102097,,,
434,0,-55.538803,-9.799348,-17.052040,70.418228,-9.772860,-12.114319,-44.219402,53.949913,22.499279,114.270210,2.235846,-65.851036,114.840942,21.137491,-103.144478,,,
435,0,-55.571186,-9.839197,-17.118193,70.392883,-9.776131,-12.134326,-44.241478,53.935215,22.486225,114.233055,2.284206,-65.877518,114.794594,21.180754,-103.183037,,,
436,0,-55.530563,-9.930126,-17.069366,70.398766,-9.778633,-12.141573,-44.221115,53.970619,22.571449,114.249298,2.305461,-65.882812,114.778801,21.214766,-103.171677,,,
437,0,-55.520695,-9.840441,-17.050032,70.409874,-9.768078,-12.125985,-44.215691,53.935806,22.554701,114.235878,2.324409,-65.881828,114.827034,21.267822,-103.167770,,,
438,0,-55.543758,-9.773170,-17.099020,70.405693,-9.768229,-12.148468,-44.219330,53.975376,22.526329,114.236366,2.354733,-65.886742,114.826721,21.285141,-103.197479,,,
439,0,-55.515491,-9.985644,-17.076931,70.421692,-9.768008,-12.158035,-44.201992,53.939186,22.552654,114.249527,2.305752,-65.883148,114.827049,21.272768,-103.176781,,,
440,0,-55.542423,-9.945999,-17.132681,70.420944,-9.805473,-12.157895,-44.236790,53.908031,22.517143,114.267525,2.303185,-65.877525,114.850182,21.263588,-103.164085,,,
441,0,-55.549530,-9.838934,-17.138041,70.443459,-9.797173,-12.163295,-44.182869,53.928162,22.489517,114.302620,2.301698,-65.871895,114.848015,21.248175,-103.199020,,,
442,0,-55.508411,-9.879519,-17.118874,70.448250,-9.816336,-12.155685,-44.153259,53.880058,22.478554,114.283211,2.287168,-65.883614,114.874001,21.209280,-103.195038,,,
443,0,-55.494556,-9.880574,-17.086761,70.459999,-9.813231,-12.145765,-44.149864,53.923382,22.546457,114.326889,2.219738,-65.879639,114.899635,21.166603,-103.208458,,,
444,0,-55.509407,-9.873688,-17.115444,70.496033,-9.868734,-12.144036,-44.155205,53.930145,22.531248,114.305328,2.185858,-65.901596,114.887825,21.127119,-103.200249,,,
445,0,-55.534016,-9.849963,-17.153444,70.496620,-9.864724,-12.139380,-43.996758,54.058006,22.478971,114.317947,2.169445,-65.906456,114.893753,21.058031,-103.204895,,,
446,0,-55.509735,-9.830980,-17.135185,70.485924,-9.850288,-12.171275,-44.128998,53.920265,22.527327,114.333153,2.171750,-65.903488,114.915092,21.052675,-103.196503,,,
447,0,-55.496468,-9.875548,-17.114466,70.511879,-9.873752,-12.155758,-44.135902,53.896889,22.475330,114.355637,2.191999,-65.927597,114.932724,21.048307,-103.266060,,,
448,0,-55.463043,-9.973557,-17.114382,70.499741,-9.899918,-12.172044,-44.122906,53.959461,22.544605,114.346748,2.147717,-65.955650,114.930893,21.024290,-103.228340,,,
449,0,-55.522472,-9.818688,-17.161606,70.506317,-9.848001,-12.220513,-44.110073,53.968647,22.528065,114.347717,2.203264,-65.983208,114.933113,21.044636,-103.279053,,,
450,0,-55.498760,-9.803462,-17.165400,70.515549,-9.824256,-12.232409,-44.121525,53.993622,22.523008,114.347893,2.203249,-65.982803,114.928215,21.082333,-103.301384,,,
451,0,-55.515102,-9.833072,-17.151484,70.517395,-9.818501,-12.227510,-44.113876,53.999550,22.551580,114.312393,2.184070,-65.982231,114.905022,21.088722,-103.307686,,,
452,0,-55.476570,-9.808444,-17.118107,70.524269,-9.817588,-12.230422,-44.134369,53.997810,22.520452,114.312469,2.221598,-66.003983,114.881729,21.071037,-103.312973,,,
453,0,-55.548981,-9.767419,-17.156458,70.493553,-9.805979,-12.224551,-44.142925,54.020424,22.536125,114.271996,2.205126,-66.028435,114.830704,21.124311,-103.357811,,,
454,0,-55.523132,-9.770302,-17.169867,70.498451,-9.805420,-12.229341,-44.143501,53.989891,22.473522,114.295090,2.222961,-66.008926,114.834503,21.128536,-103.347427,,,
455,0,-55.524525,-9.760197,-17.165377,70.482574,-9.773823,-12.221830,-43.987305,54.170395,22.430887,114.294273,2.248933,-66.011116,114.826317,21.162649,-103.364906,,,
456,0,-55.507133,-9.793113,-17.102446,70.479607,-9.727565,-12.224204,-44.154526,54.072659,22.546732,114.278015,2.259615,-66.014755,114.847870,21.160921,-103.347244,,,
457,0,-55.500992,-9.788662,-17.129644,70.510818,-9.744044,-12.216011,-44.155201,54.036671,22.507309,114.268257,2.291925,-65.997177,114.853630,21.157789,-103.301620,,,
458,0,-55.533009,-9.805874,-17.149519,70.476814,-9.732902,-12.229633,-44.174713,53.983337,22.493975,114.272171,2.297403,-65.989624,114.866425,21.215551,-103.269348,,,
459,0,-55.518768,-9.813184,-17.121622,70.495277,-9.727650,-12.209695,-44.179878,53.989174,22.485949,114.295334,2.349199,-65.965584,114.858971,21.266582,-103.246216,,,
460,0,-55.499870,-9.795681,-17.108641,70.505913,-9.743192,-12.214681,-44.152119,53.990532,22.510563,114.334229,2.374467,-65.958160,114.880081,21.282558,-103.259087,,,
461,0,-55.524712,-9.819320,-17.140150,70.506378,-9.735376,-12.194789,-44.173199,53.979385,22.486574,114.299927,2.355774,-65.958321,114.885666,21.310875,-103.213463,,,
462,0,-55.500237,-9.786177,-17.127718,70.508987,-9.737003,-12.209657,-44.163563,53.963215,22.472761,114.319000,2.346779,-65.937920,114.903610,21.297066,-103.232376,,,
463,0,-55.536369,-9.773181,-17.121399,70.516785,-9.747488,-12.179178,-44.147224,54.032948,22.543715,114.295815,2.353023,-65.935555,114.871880,21.247660,-103.226967,,,
464,0,-55.507156,-9.785411,-17.119417,70.515099,-9.711511,-12.184776,-44.166142,54.014130,22.503565,114.299744,2.325559,-65.953300,114.892067,21.214439,-103.232193,,,
465,0,-55.480938,-9.828338,-17.090342,70.499947,-9.741880,-12.184388,-44.149284,54.065620,22.552052,114.294670,2.313699,-65.969437,114.874779,21.180201,-103.252159,,,
466,0,-55.460938,-9.869162,-17.077082,70.496376,-9.765357,-12.227538,-44.141911,54.046074,22.517014,114.267838,2.291504,-65.996567,114.846817,21.161388,-103.293831,,,
467,0,-55.500961,-9.784401,-17.126883,70.510818,-9.735090,-12.227833,-44.115009,54.078690,22.496029,114.267311,2.288304,-66.007530,114.847626,21.161333,-103.348869,,,
468,0,-55.497585,-9.747042,-17.148638,70.495575,-9.756474,-12.256206,-44.098385,54.055809,22.464092,114.278198,2.311652,-66.076752,114.818047,21.168621,-103.368340,,,
469,0,-55.497917,-9.744893,-17.147797,70.495041,-9.713473,-12.291504,-44.107464,54.053268,22.444977,114.295135,2.333355,-66.082474,114.803574,21.215008,-103.404800,,,
470,0,-55.491062,-9.752805,-17.160213,70.519157,-9.694841,-12.322761,-44.096809,54.109097,22.478552,114.307251,2.335225,-66.118950,114.823059,21.236757,-103.423889,,,
471,0,-55.467503,-9.829623,-17.114082,70.530731,-9.700845,-12.337515,-44.103573,54.021957,22.442978,114.305038,2.346463,-66.139191,114.844177,21.248825,-103.410660,,,
472,0,-55.474766,-9.766320,-17.138948,70.544472,-9.708224,-12.338718,-44.067986,54.030445,22.422562,114.311905,2.385452,-66.171761,114.845970,21.255497,-103.403252,,,
473,0,-55.439430,-9.755830,-17.132988,70.539398,-9.694987,-12.345948,-44.064869,54.091930,22.469286,114.311935,2.385718,-66.171959,114.893196,21.260010,-103.416374,,,
474,0,-55.454250,-9.751945,-17.164572,70.552490,-9.685534,-12.347667,-44.091362,54.041466,22.384216,114.315735,2.395402,-66.155975,114.892601,21.259108,-103.413589,,,
475,0,-55.454109,-9.753117,-17.165161,70.556015,-9.703362,-12.339264,-44.071346,54.068848,22.423105,114.308350,2.388879,-66.141556,114.881569,21.287066,-103.402931,,,
476,0,-55.457798,-9.770810,-17.134699,70.563148,-9.702441,-12.318278,-44.082748,54.035393,22.415590,114.331985,2.389062,-66.105682,114.866608,21.285641,-103.401863,,,
477,0,-55.471180,-9.778316,-17.146620,70.558289,-9.684699,-12.273499,-44.092522,54.075073,22.405363,114.314674,2.390843,-66.110741,114.865891,21.283955,-103.397392,,,
478,0,-55.435158,-9.775527,-17.131857,70.555016,-9.671725,-12.264898,-44.064659,54.123455,22.447309,114.338448,2.381317,-66.076523,114.865173,21.283031,-103.394775,,,
479,0,-55.469559,-9.727153,-17.124123,70.553932,-9.667756,-12.258472,-44.079304,54.168930,22.447174,114.340820,2.379700,-66.054329,114.893356,21.262909,-103.368164,,,
480,0,-55.444653,-9.762009,-17.067816,70.554260,-9.627232,-12.245636,-44.080776,54.111832,22.419682,114.327400,2.387378,-66.051964,114.896477,21.272650,-103.366524,,,
481,0,-55.443672,-9.764614,-17.034414,70.552742,-9.605128,-12.224457,-44.084343,54.125389,22.452585,114.307343,2.395378,-66.032906,114.866684,21.342516,-103.357162,,,
482,0,-55.468700,-9.737321,-17.104315,70.543640,-9.623002,-12.243301,-44.060783,54.162083,22.488228,114.351875,2.417024,-66.000587,114.887177,21.352318,-103.341278,,,
483,0,-55.454231,-9.745483,-17.075293,70.540550,-9.618253,-12.264992,-44.052731,54.114929,22.497051,114.350990,2.485475,-66.018967,114.908958,21.388655,-103.347107,,,
484,0,-55.440517,-9.744034,-17.067341,70.542549,-9.618867,-12.264064,-44.071400,54.130634,22.464323,114.351433,2.483917,-66.016853,114.899460,21.419781,-103.355286,,,
485,0,-55.442974,-9.712151,-17.150190,70.550896,-9.617266,-12.258572,-44.079121,54.113735,22.418894,114.347839,2.483630,-66.070465,114.921730,21.413012,-103.346199,,,
486,0,-55.443474,-9.711616,-17.149714,70.564438,-9.633283,-12.268497,-43.875301,54.310329,22.420397,114.362061,2.461743,-66.070045,114.918945,21.401871,-103.365318,,,
487,0,-55.459141,-9.707181,-17.157772,70.579185,-9.638067,-12.262783,-43.906509,54.269268,22.392841,114.379326,2.481750,-66.088303,114.937500,21.399569,-103.389145,,,
488,0,-55.436775,-9.769719,-17.123888,70.593430,-9.616555,-12.272971,-43.907375,54.252716,22.393456,114.376755,2.459067,-66.098045,114.923676,21.360067,-103.376732,,,
489,0,-55.408684,-9.718967,-17.119148,70.614952,-9.605923,-12.289958,-43.848511,54.301857,22.402653,114.372551,2.454053,-66.106285,114.921234,21.352581,-103.402832,,,
490,0,-55.386887,-9.760277,-17.111380,70.611771,-9.606967,-12.314360,-44.017406,54.142551,22.396811,114.370171,2.459913,-66.118576,114.934708,21.338009,-103.437241,,,
491,0,-55.412041,-9.730020,-17.094276,70.607346,-9.605938,-12.325657,-43.837879,54.333733,22.377695,114.374847,2.462733,-66.140923,114.892876,21.342846,-103.469933,,,
492,0,-55.387600,-9.691491,-17.126112,70.608994,-9.609393,-12.324077,-44.001606,54.166542,22.408867,114.367928,2.461776,-66.188423,114.890602,21.333160,-103.495346,,,
493,0,-55.361084,-9.747152,-17.063791,70.615341,-9.584464,-12.338881,-43.977505,54.178806,22.441469,114.365479,2.444907,-66.176117,114.862511,21.349079,-103.514572,,,
494,0,-55.383873,-9.732350,-17.129501,70.613426,-9.587609,-12.358479,-43.994297,54.178123,22.412004,114.361214,2.462261,-66.207611,114.908859,21.329147,-103.513374,,,
495,0,-55.368874,-9.746742,-17.105761,70.613739,-9.594209,-12.367222,-43.825264,54.309040,22.370869,114.346107,2.452665,-66.193192,114.915161,21.343273,-103.476372,,,
496,0,-55.387722,-9.703493,-17.141491,70.595291,-9.587586,-12.371225,-43.830986,54.334023,22.345137,114.352104,2.477058,-66.186111,114.886002,21.364857,-103.486481,,,
497,0,-55.373398,-9.713908,-17.115252,70.614944,-9.584445,-12.353558,-43.965317,54.201145,22.399345,114.352379,2.481200,-66.176270,114.907249,21.415571,-103.459358,,,
498,0,-55.352757,-9.765709,-17.056120,70.582222,-9.554199,-12.359571,-43.807320,54.339577,22.403740,114.342888,2.540482,-66.162987,114.900322,21.452969,-103.481857,,,
499,0,-55.379757,-9.713646,-17.082027,70.584663,-9.549947,-12.353010,-43.968918,54.212269,22.413603,114.365952,2.567375,-66.160919,114.906868,21.420782,-103.449196,,,
500,0,-55.399399,-9.668496,-17.113260,70.600662,-9.527661,-12.354202,-43.833706,54.335064,22.378010,114.350960,2.543864,-66.134140,114.909721,21.424765,-103.437469,,,
501,0,-55.407204,-9.659534,-17.093065,70.581970,-9.529856,-12.355560,-43.985020,54.216377,22.415705,114.384315,2.580514,-66.149368,114.909462,21.427013,-103.443192,,,
502,0,-55.401039,-9.643369,-17.124395,70.628166,-9.503334,-12.358759,-43.964512,54.208069,22.384119,114.384956,2.581612,-66.149803,114.900398,21.460064,-103.455017,,,
503,0,-55.400902,-9.650446,-17.104713,70.627281,-9.502468,-12.359584,-43.969475,54.233452,22.403570,114.403244,2.573668,-66.132416,114.923714,21.453602,-103.434662,,,
504,0,-55.382092,-9.692515,-17.066599,70.633316,-9.499011,-12.339791,-43.969761,54.187424,22.371349,114.399338,2.593337,-66.166702,114.947731,21.461777,-103.449371,,,
505,0,-55.393452,-9.660721,-17.126484,70.634407,-9.489822,-12.353483,-43.806511,54.376122,22.336733,114.400482,2.587940,-66.155243,114.922836,21.491543,-103.454926,,,
506,0,-55.385372,-9.662086,-17.076124,70.634720,-9.490864,-12.342566,-43.948082,54.231602,22.397493,114.398575,2.594535,-66.167351,114.916290,21.483421,-103.443703,,,
507,0,-55.386486,-9.651630,-17.096272,70.639610,-9.507838,-12.344966,-43.946583,54.233814,22.394997,114.397011,2.585396,-66.133125,114.913094,21.508463,-103.465805,,,
508,0,-55.388844,-9.687151,-17.103628,70.634834,-9.505687,-12.370803,-43.980408,54.213444,22.364777,114.381676,2.604139,-66.169937,114.918709,21.491768,-103.438789,,,
509,0,-55.365547,-9.718650,-17.102583,70.635475,-9.505924,-12.370987,-43.797096,54.385490,22.324492,114.399010,2.589376,-66.176094,114.915405,21.511858,-103.485214,,,
510,0,-55.382690,-9.682044,-17.086304,70.632675,-9.497657,-12.359921,-43.973690,54.219688,22.331051,114.365608,2.570900,-66.179359,114.912880,21.501183,-103.505852,,,
511,0,-55.374935,-9.690199,-17.105564,70.611534,-9.482559,-12.361965,-43.790462,54.402637,22.324192,114.364449,2.572376,-66.180168,114.901779,21.465208,-103.504868,,,
512,0,-55.399113,-9.715738,-17.125256,70.600189,-9.522593,-12.382428,-43.810349,54.389294,22.330523,114.364647,2.571942,-66.179893,114.875412,21.468960,-103.491440,,,
513,0,-55.398106,-9.726145,-17.130638,70.581833,-9.483050,-12.391514,-43.972504,54.232113,22.368092,114.353645,2.565303,-66.218979,114.865990,21.497648,-103.529655,,,
514,0,-55.384724,-9.724087,-17.136703,70.583885,-9.485100,-12.405732,-43.983082,54.266098,22.383474,114.335663,2.565513,-66.223503,114.866653,21.495876,-103.527885,,,
515,0,-55.385826,-9.717287,-17.128263,70.589432,-9.501477,-12.397264,-43.991970,54.251610,22.337374,114.322342,2.588670,-66.224686,114.843872,21.505438,-103.541656,,,
516,0,-55.387863,-9.753807,-17.102951,70.584091,-9.512977,-12.390819,-43.993900,54.248116,22.396318,114.305611,2.626839,-66.231255,114.846779,21.506596,-103.523689,,,
517,0,-55.394753,-9.707793,-17.169369,70.600403,-9.520591,-12.394392,-43.815281,54.378143,22.364048,114.359039,2.602841,-66.205933,114.844238,21.524197,-103.492867,,,
518,0,-55.378174,-9.729308,-17.148470,70.600769,-9.518777,-12.382187,-43.991814,54.200638,22.412073,114.327858,2.624234,-66.209999,114.837090,21.546188,-103.528084,,,
519,0,-55.391987,-9.728771,-17.181593,70.608368,-9.513862,-12.378494,-44.012272,54.174793,22.352648,114.349792,2.627096,-66.196960,114.891457,21.529713,-103.472939,,,
520,0,-55.358879,-9.765902,-17.132631,70.622726,-9.542548,-12.393888,-43.827232,54.297585,22.353661,114.397720,2.614308,-66.190094,114.908188,21.543516,-103.497925,,,
521,0,-55.355305,-9.742290,-17.151743,70.632912,-9.533240,-12.380106,-43.980358,54.163368,22.374897,114.401993,2.617566,-66.211998,114.908218,21.544306,-103.499031,,,
522,0,-55.340183,-9.745015,-17.142733,70.639534,-9.528137,-12.388840,-43.777321,54.367786,22.363026,114.414261,2.604677,-66.187515,114.905045,21.533651,-103.518692,,,
523,0,-55.309990,-9.761666,-17.086042,70.662048,-9.519924,-12.410751,-43.736843,54.355045,22.364271,114.411148,2.590653,-66.233192,114.935028,21.497871,-103.502281,,,
524,0,-55.321148,-9.784800,-17.106319,70.680099,-9.520338,-12.376633,-43.755020,54.386776,22.372250,114.426964,2.586277,-66.238876,114.956322,21.467812,-103.515289,,,
525,0,-55.305859,-9.794160,-17.078211,70.692726,-9.519981,-12.385228,-43.765781,54.361523,22.349455,114.423759,2.581717,-66.216003,114.957443,21.462160,-103.507523,,,
526,0,-55.315849,-9.819954,-17.098076,70.693275,-9.515521,-12.394211,-43.769711,54.384174,22.359873,114.430374,2.610506,-66.231270,114.955788,21.464844,-103.509644,,,
527,0,-55.321159,-9.782228,-17.102961,70.707520,-9.494771,-12.397133,-43.939575,54.222980,22.379578,114.426193,2.597023,-66.259216,114.993011,21.501108,-103.518837,,,
528,0,-55.325558,-9.750026,-17.112097,70.678322,-9.500133,-12.414758,-43.781898,54.407955,22.315371,114.462685,2.627683,-66.262474,114.980133,21.476280,-103.493759,,,
529,0,-55.336166,-9.775073,-17.133873,70.697273,-9.494136,-12.419124,-43.780449,54.407799,22.291845,114.445641,2.634147,-66.258186,114.970016,21.495220,-103.521095,,,
530,0,-55.344433,-9.708998,-17.103170,70.667976,-9.490124,-12.407768,-43.761971,54.395512,22.317833,114.449966,2.643050,-66.240410,114.940826,21.575361,-103.515556,,,
531,0,-55.347794,-9.734975,-17.103456,70.683273,-9.448453,-12.409909,-43.802193,54.414474,22.312513,114.431488,2.666464,-66.248695,114.936485,21.601131,-103.570679,,,
532,0,-55.354935,-9.746498,-17.086292,70.674866,-9.443253,-12.413073,-43.985340,54.278530,22.335463,114.400772,2.694227,-66.253464,114.941223,21.576864,-103.518379,,,
533,0,-55.384399,-9.726113,-17.138985,70.669113,-9.433217,-12.405880,-43.831013,54.398571,22.283207,114.437454,2.663959,-66.227066,114.921638,21.589003,-103.518349,,,
534,0,-55.377975,-9.722044,-17.122524,70.649651,-9.441532,-12.395034,-43.982006,54.259136,22.330442,114.398239,2.656704,-66.214622,114.942268,21.574060,-103.516800,,,
535,0,-55.385853,-9.711114,-17.123560,70.666168,-9.413776,-12.404958,-43.824024,54.425797,22.273766,114.420731,2.673203,-66.213615,114.941635,21.576441,-103.518799,,,
536,0,-55.389324,-9.673246,-17.072701,70.660881,-9.427361,-12.393109,-43.800224,54.476879,22.303370,114.425392,2.650014,-66.201378,114.950180,21.547260,-103.487206,,,
537,0,-55.346413,-9.627504,-17.132883,70.664803,-9.426684,-12.362598,-43.798603,54.466419,22.279127,114.440872,2.666011,-66.175011,114.948006,21.551657,-103.475128,,,
538,0,-55.379383,-9.588019,-17.145138,70.658493,-9.408072,-12.364604,-43.940998,54.405643,22.380898,114.459702,2.653469,-66.149994,115.013580,21.544256,-103.473663,,,
539,0,-55.386185,-9.612041,-17.150866,70.673782,-9.398371,-12.357855,-43.762711,54.548275,22.283958,114.458580,2.651976,-66.149139,115.038063,21.562155,-103.450485,,,
540,0,-55.408020,-9.545176,-17.174894,70.683479,-9.385834,-12.355154,-43.773849,54.527630,22.269278,114.481773,2.698663,-66.134651,115.017693,21.595314,-103.445358,,,
541,0,-55.389633,-9.541549,-17.234673,70.682335,-9.394716,-12.387722,-43.933624,54.392345,22.332296,114.459785,2.706900,-66.181770,115.004959,21.620188,-103.483192,,,
542,0,-55.383404,-9.492679,-17.224012,70.669731,-9.386451,-12.391458,-43.772198,54.525578,22.256994,114.473717,2.709605,-66.186279,115.009071,21.627457,-103.454933,,,
543,0,-55.339970,-9.549709,-17.117052,70.681335,-9.401523,-12.387651,-43.910561,54.376019,22.396299,114.442459,2.741973,-66.190620,114.986359,21.633780,-103.463654,,,
544,0,-55.297794,-9.569474,-17.121414,70.693604,-9.390775,-12.409441,-43.901680,54.348576,22.315704,114.481155,2.760581,-66.174637,115.006111,21.642591,-103.463905,,,
545,0,-55.334816,-9.540389,-17.130697,70.712013,-9.361400,-12.404053,-43.738117,54.561424,22.288546,114.486603,2.764041,-66.196182,115.006599,21.642529,-103.464005,,,
546,0,-55.332462,-9.568108,-17.115742,70.696243,-9.340216,-12.402169,-43.716381,54.502434,22.240501,114.504616,2.770756,-66.204674,115.029564,21.632421,-103.449005,,,
547,0,-55.327625,-9.602091,-17.105471,70.710464,-9.326631,-12.385600,-43.705997,54.507755,22.250456,114.500626,2.767846,-66.182289,115.032188,21.640306,-103.444290,,,
548,0,-55.299129,-9.607834,-17.066669,70.735199,-9.306088,-12.358004,-43.697098,54.497139,22.271704,114.504852,2.776389,-66.164932,115.029221,21.633295,-103.451431,,,
549,0,-55.274982,-9.675549,-17.037846,70.749565,-9.297279,-12.352663,-43.705925,54.552471,22.298929,114.527992,2.772965,-66.121315,115.074631,21.644424,-103.420609,,,
550,0,-55.286644,-9.637429,-17.083181,70.747116,-9.299839,-12.300800,-43.875290,54.405392,22.317268,114.552254,2.779881,-66.097679,115.060699,21.674435,-103.370949,,,
551,0,-55.271980,-9.648636,-17.056152,70.775261,-9.300985,-12.270459,-43.900158,54.442184,22.331390,114.617928,2.825183,-65.985497,115.190506,21.733759,-103.308060,,,
552,0,-55.286789,-9.638637,-17.084562,70.788017,-9.296250,-12.174750,-43.714958,54.586040,22.280226,114.702438,2.821624,-65.848190,115.317841,21.719435,-103.141304,,,
553,0,-55.257248,-9.597067,-17.067793,70.813248,-9.278305,-12.037971,-43.691608,54.572781,22.269112,114.813148,2.806928,-65.668839,115.468697,21.724852,-102.959763,,,
554,0,-55.234650,-9.556713,-17.143038,70.863014,-9.279202,-11.888922,-43.708607,54.610752,22.294302,114.985939,2.805932,-65.376877,115.701935,21.717400,-102.683395,,,
555,0,-55.190189,-9.636068,-17.161604,70.911896,-9.321744,-11.632060,-43.672100,54.646881,22.263115,115.273598,2.830359,-64.938454,116.035553,21.737223,-102.229744,,,
556,0,-55.241146,-9.589257,-17.273247,70.945419,-9.353152,-11.243054,-43.744377,54.637829,22.191944,115.632629,2.809953,-64.295265,116.668533,21.742571,-101.565674,,,
557,0,-55.300732,-9.519824,-17.409559,70.991165,-9.404433,-10.773375,-43.782234,54.617153,22.126053,116.076256,2.758535,-63.456066,117.383919,21.799828,-100.677979,,,
558,0,-55.351696,-9.487038,-17.531490,71.102745,-9.537235,-10.165280,-43.795387,54.563770,22.091520,116.695160,2.594932,-62.346485,118.309875,21.787523,-99.495705,,,
559,0,-55.360241,-9.480721,-17.618731,71.192574,-9.688589,-9.312132,-43.837269,54.608128,22.141552,117.354622,2.399602,-60.956535,119.337898,21.736231,-98.079521,,,
560,0,-55.375675,-9.378142,-17.716995,71.310921,-9.989577,-8.229033,-43.887356,54.604980,22.108086,118.134346,2.282976,-59.368458,120.717316,21.516872,-96.003883,,,
561,0,-55.455425,-9.311263,-17.772102,71.351479,-10.199763,-7.164806,-43.929611,54.616703,22.097944,118.983536,2.034688,-57.371326,122.013023,21.531868,-93.984833,,,
562,0,-55.476192,-9.256747,-17.782421,71.588966,-10.705513,-5.519456,-43.964581,54.476082,22.021299,119.884315,1.920291,-55.281761,123.397934,21.629780,-91.719795,,,
563,0,-55.495228,-9.115614,-17.743986,71.762009,-11.074712,-3.875751,-44.050404,54.479897,22.131062,120.769943,1.670068,-52.875599,124.853111,21.717321,-89.090134,,,
564,0,-55.511543,-8.915885,-17.644548,71.721252,-11.380167,-2.281909,-44.175465,54.460995,22.298731,121.741661,1.636415,-50.214504,126.321632,21.890940,-86.355217,,,
565,0,-55.455441,-8.735361,-17.481705,71.640411,-11.536855,-0.640967,-44.272800,54.495575,22.507151,122.672203,1.555178,-47.327660,127.564445,22.277819,-83.533127,,,
566,0,-55.374828,-8.400863,-17.253119,71.648430,-11.838553,1.337145,-44.422375,54.568027,22.731157,123.547005,1.610458,-44.399746,128.626556,22.820858,-80.590210,,,
567,0,-55.325798,-8.133590,-17.067272,71.737419,-12.070434,3.617092,-44.603779,54.690445,22.999981,124.304665,1.814404,-41.465626,129.791733,23.321741,-77.161407,,,
568,0,-55.254734,-7.736541,-16.656893,71.730133,-12.076121,5.618910,-44.776779,54.848183,23.336681,125.084801,2.205425,-38.403374,130.388153,24.186270,-74.096817,,,
569,0,-55.181126,-7.378763,-16.051003,71.722504,-12.031312,7.700701,-44.929340,55.109680,23.777334,125.779030,2.492175,-35.496452,130.732437,25.275761,-71.242149,,,
570,0,-55.069084,-7.074140,-15.312723,71.642281,-11.946395,9.686445,-45.214874,55.343697,24.309372,126.445297,2.773052,-32.641682,131.075821,26.425520,-68.335350,,,
571,0,-54.942848,-6.782584,-14.699947,71.584602,-11.676612,11.649355,-45.387939,55.677784,24.839588,127.060219,2.861035,-29.834616,131.447464,27.218603,-65.611130,,,
572,0,-54.841019,-6.427482,-14.279165,71.589539,-11.301031,13.631129,-45.563572,55.970665,25.290586,127.751915,3.000421,-27.052214,131.950043,28.019220,-62.852039,,,
573,0,-54.744625,-5.997567,-13.805365,71.486221,-10.849713,15.407708,-45.728092,56.447227,25.657625,128.547409,3.351405,-24.210138,132.561401,29.171799,-59.982990,,,
574,0,-54.624290,-5.557098,-13.366886,71.413895,-10.404190,17.201992,-45.781956,56.949860,25.952126,129.467133,3.915901,-21.276972,132.543930,30.544245,-57.170845,,,
575,0,-54.408115,-5.177253,-12.958886,71.438995,-9.909913,18.915173,-45.909718,57.381428,26.134794,130.298950,4.494712,-18.452145,132.210526,31.972780,-54.452950,,,
576,0,-54.212341,-4.734512,-12.511485,71.438255,-9.359360,20.583727,-46.251377,57.642109,26.308636,131.194550,5.148184,-15.809996,131.700394,33.358948,-51.890324,,,
577,0,-54.047470,-4.259686,-12.116949,71.472412,-8.814516,22.183546,-46.136627,58.318375,26.471706,131.995682,5.812360,-13.338607,130.991989,34.789536,-49.372826,,,
578,0,-53.892952,-3.830979,-11.622092,71.548279,-8.249844,23.732464,-46.175667,58.811249,26.688915,133.006851,6.479750,-10.872984,130.110687,36.303658,-46.988091,,,
579,0,-53.671158,-3.406705,-11.150566,71.658920,-7.790141,25.316284,-46.225166,59.292412,26.841318,133.590500,7.320562,-8.705667,129.043793,37.673389,-44.560196,,,
580,0,-53.477531,-2.932888,-10.744418,71.718048,-7.229119,26.856859,-46.318493,59.819492,27.062780,134.284027,8.171181,-6.441928,127.820862,38.944046,-42.102345,,,
581,0,-53.337433,-2.461066,-10.153664,71.727592,-6.647040,28.271526,-46.514072,60.184093,27.239758,135.188828,8.982786,-4.103347,126.597672,40.108585,-39.583904,,,
582,0,-53.108929,-2.132875,-9.759956,71.702469,-6.218876,29.870911,-46.376595,60.836258,27.520817,135.475815,9.734980,-2.036965,125.584320,40.981319,-36.942215,,,
583,0,-52.944874,-1.767714,-9.213264,71.655853,-5.774676,31.365637,-46.495628,61.254353,27.776529,136.127884,10.355149,0.129476,124.377274,41.910824,-34.797150,,,
584,0,-52.798943,-1.380346,-8.712420,71.615250,-5.342336,32.858997,-46.610241,61.719860,28.106573,136.480103,10.817240,2.042618,123.349388,42.431213,-32.596100,,,
585,0,-52.716198,-0.925949,-8.290848,71.499245,-4.912539,34.349972,-46.860893,61.881599,28.427048,136.716858,11.299636,3.909238,122.314133,42.882130,-30.417814,,,
586,0,-52.620632,-0.628761,-7.760555,71.430855,-4.608658,35.820686,-46.814865,62.423809,28.716764,136.923920,11.911996,5.542755,121.039810,43.241806,-28.354328,,,
587,0,-52.483955,-0.504715,-7.166494,71.310440,-4.248345,37.283768,-47.037342,62.583549,28.963572,136.999466,12.533214,7.285666,120.043900,43.765888,-26.138107,,,
588,0,-52.424568,-0.256917,-6.725419,71.143829,-3.990722,38.727962,-46.939159,63.046745,29.159399,136.956650,13.321668,9.108778,118.528313,44.111343,-24.381010,,,
589,0,-52.355400,-0.112276,-6.307663,70.932632,-3.809467,40.098816,-46.990040,62.999874,29.167242,136.953156,14.105074,10.841395,116.574547,44.428093,-22.530918,,,
590,0,-52.250263,0.096441,-6.006504,70.749229,-3.601463,41.386612,-47.337204,63.317894,29.426865,136.844559,14.733900,12.349350,115.917343,44.862789,-20.396122,,,
591,0,-52.169350,0.246695,-5.711665,70.565704,-3.528115,42.520668,-47.437397,63.543663,29.628056,136.669800,15.507655,13.639138,114.088737,45.181656,-19.133905,,,
592,0,-52.135178,0.492309,-5.494499,70.404358,-3.456609,43.589561,-47.374428,63.910389,29.792650,136.400894,16.307650,14.702728,112.728264,45.635422,-17.721985,,,
593,0,-52.103363,0.567351,-5.231429,70.237823,-3.430250,44.623009,-47.459892,64.006935,30.022686,136.122375,17.150248,15.465412,112.035553,46.046116,-16.263630,,,
594,0,-51.999187,0.649696,-4.974156,70.095047,-3.440832,45.599499,-47.597263,64.132919,30.203182,135.680725,17.953156,16.123262,110.052956,46.462395,-15.373061,,,
595,0,-51.945667,0.805041,-4.784368,69.950737,-3.424978,46.534954,-47.676304,64.223305,30.320871,135.182358,18.865854,16.609709,108.380875,46.763134,-14.417705,,,
596,0,-51.889538,0.868957,-4.602139,69.789528,-3.457232,47.395657,-47.685074,64.374626,30.378225,134.603592,19.724010,16.948572,106.541412,46.994106,-13.556011,,,
597,0,-51.867676,0.892376,-4.395598,69.633438,-3.456479,48.224575,-47.705208,64.530876,30.351984,134.014008,20.487404,17.206629,104.597908,47.216709,-12.668183,,,
598,0,-51.800552,0.914359,-4.172557,69.466034,-3.514583,49.006279,-47.772434,64.643318,30.266006,133.395905,21.158115,17.404707,103.294746,47.215939,-11.917532,,,
599,0,-51.753666,0.853732,-3.989506,69.306870,-3.585716,49.752335,-47.714607,64.877396,30.134998,132.816010,21.625193,17.552761,101.767105,47.131275,-11.280524,,,
600,0,-51.725193,0.872596,-3.902844,69.136154,-3.588311,50.444630,-47.710209,65.046036,29.970654,132.255142,22.082516,17.695490,100.300812,47.040771,-10.641997,,,
601,0,-51.690571,0.763831,-3.762063,68.962158,-3.608289,51.116112,-47.831318,65.039490,29.745470,131.677811,22.500710,17.825748,99.080475,46.851536,-10.195986,,,
602,0,-51.635128,0.675957,-3.693560,68.808556,-3.632995,51.732655,-47.753613,65.220222,29.495438,131.091843,22.902042,17.871229,97.697571,46.585197,-9.690119,,,
603,0,-51.545231,0.577948,-3.658702,68.644203,-3.630863,52.269009,-47.623493,65.304451,29.176491,130.493576,23.329720,17.893034,95.945114,46.395519,-9.493429,,,
604,0,-51.445240,0.545356,-3.626665,68.521339,-3.639084,52.741917,-47.160183,65.288643,28.776556,129.869873,23.690672,17.740601,94.620171,46.174320,-9.232647,,,
605,0,-51.409428,0.487557,-3.624242,68.416672,-3.713345,53.151138,-47.131157,65.674561,28.573345,129.245590,23.968966,17.469559,93.561607,45.618172,-8.770326,,,
606,0,-51.353374,0.389594,-3.558281,68.352943,-3.771519,53.450432,-47.445637,65.389206,28.301523,128.598877,24.221407,17.052032,92.113342,45.415493,-8.741807,,,
607,0,-51.305851,0.226684,-3.481904,68.262360,-3.842871,53.740894,-47.257397,65.525887,28.100298,127.867180,24.544264,16.483759,91.042473,45.118584,-8.433602,,,
608,0,-51.258652,0.066410,-3.409359,68.238091,-3.900487,54.034309,-47.191433,65.471191,27.828184,127.107513,24.955843,15.846993,89.383720,45.293091,-8.448935,,,
609,0,-51.196220,-0.077372,-3.422142,68.155350,-3.999580,54.294769,-47.126217,65.477966,27.578911,126.258957,25.177544,15.152746,85.982475,45.683796,-8.988898,,,
610,0,-51.161152,-0.103982,-3.473281,68.051628,-4.116916,54.515083,-47.188538,65.409492,27.321249,125.485641,25.258467,14.525434,84.985008,45.175240,-8.287981,,,
611,0,-51.113850,-0.169588,-3.516582,67.914619,-4.338633,54.647289,-47.197422,65.338974,27.050085,124.735115,25.289398,13.872181,82.969635,44.129906,-8.113870,,,
612,0,-51.148121,-0.273644,-3.523983,67.815933,-4.492925,54.765602,-47.233608,65.377937,26.877544,124.043938,25.258259,13.304955,82.356750,44.084511,-8.114962,,,
613,0,-51.176807,-0.476783,-3.492554,67.780006,-4.654186,54.878902,-47.217159,65.327438,26.748394,123.310181,25.220381,12.722067,81.494064,43.491840,-8.162152,,,
614,0,-51.168613,-0.582287,-3.387816,67.751801,-4.705057,55.023903,-47.304882,65.284622,26.588991,122.568726,25.243973,12.090549,79.393532,43.570019,-8.199587,,,
615,0,-51.130600,-0.758335,-3.203332,67.744057,-4.688694,55.200966,-46.931255,65.162437,26.314234,121.843979,25.126755,11.337264,78.936417,42.258366,-8.371432,,,
616,0,-51.135910,-0.857471,-2.998231,67.776825,-4.606889,55.363586,-47.149376,65.215828,26.174385,121.168602,24.835846,10.479229,76.895073,42.608246,-8.997500,,,
617,0,-51.181507,-1.047712,-2.733290,67.800156,-4.515643,55.457439,-47.262444,65.039055,25.847797,120.201180,24.519747,9.335731,,,,,,
618,0,-51.221622,-1.467230,-2.235039,67.786827,-4.405449,55.561905,-46.937447,64.901810,25.364918,119.739746,23.947475,8.482532,74.282173,46.072315,-10.819980,,,
619,0,-51.412987,-1.905026,-1.840723,67.762108,-4.352281,55.548111,-47.169384,64.561508,24.804392,118.942398,23.418032,7.386569,,,,,,
620,0,-51.540432,-2.266622,-1.390454,67.750839,-4.437058,55.365364,-47.155758,64.639069,24.300961,118.601990,22.600283,6.483913,,,,,,
621,0,-51.671989,-2.586687,-1.000851,67.736290,-4.685310,55.046375,-46.926220,64.631905,23.678823,117.995834,21.926535,5.412408,,,,,,
622,0,-51.821251,-2.890163,-0.744034,67.726807,-4.937284,54.658844,-46.780888,64.589180,23.251619,117.663689,21.101343,4.394956,,,,,,
623,0,-51.948215,-3.124960,-0.594916,67.886955,-5.130852,54.149628,-46.645401,64.572487,22.780537,117.323959,20.240393,3.169680,,,,,,
624,0,-52.032494,-3.349741,-0.454822,68.115074,-5.294830,53.534595,-46.502399,64.477242,22.406954,117.105461,19.478271,1.876342,,,,,,
625,0,-52.179325,-3.726776,-0.169186,68.374474,-5.426059,52.875469,-46.269997,64.357368,21.903488,116.853676,18.718742,0.415728,,,,,,
626,0,-52.300529,-3.970309,-0.018711,68.644844,-5.592685,52.102909,-46.122246,64.229630,21.392618,116.585419,18.022604,-1.063487,,,,,,
627,0,-52.379074,-4.224142,0.006658,68.917534,-5.791901,51.292782,-45.994320,64.133163,20.962002,116.371994,17.390036,-2.464426,,,,,,
628,0,-52.371216,-4.436048,-0.076493,69.158035,-6.054031,50.427723,-45.876484,64.033752,20.462477,116.197594,16.941301,-3.803751,,,,,,
629,0,-52.372158,-4.525291,-0.268444,69.425995,-6.209340,49.551411,-45.801754,63.970798,20.135386,115.988533,16.538492,-5.169850,,,,,,
630,0,-52.361767,-4.663811,-0.400623,69.743538,-6.294944,48.715443,-45.791706,63.819954,19.810783,115.814911,16.190283,-6.534990,,,,,,
631,0,-52.376461,-4.747215,-0.492248,70.052589,-6.339305,47.969646,-45.871265,63.860981,19.408554,115.689018,15.872437,-7.795325,,,,,,
632,0,-52.346237,-4.917720,-0.483427,70.338081,-6.394866,47.200329,-45.418667,64.182007,19.138247,115.538139,15.685646,-9.034198,,,,,,
633,0,-52.384705,-5.026391,-0.520159,70.542892,-6.358857,46.520451,-45.387463,64.214905,18.819374,115.325371,15.810867,-10.026727,,,,,,
634,0,-52.331814,-5.055247,-0.605381,70.702538,-6.313565,45.980995,-45.328156,64.254936,18.566463,115.262253,15.815811,-10.728231,,,,,,
635,0,-52.272251,-4.959441,-0.740355,70.851997,-6.205989,45.545109,-45.272324,64.352509,18.370794,115.177246,15.957482,-11.259301,,,,,,
636,0,-52.222328,-4.864197,-0.829820,70.977264,-6.050226,45.282295,-45.263641,64.414185,18.200726,115.114899,16.121481,-11.635176,,,,,,
637,0,-52.193596,-4.784519,-0.768524,71.067970,-5.852205,45.185940,-45.108189,64.660789,18.210714,115.110870,16.319782,-11.816466,,,,,,
638,0,-52.138992,-4.630813,-0.656458,71.141922,-5.611868,45.240726,-45.238201,64.785027,18.113810,115.102325,16.494576,-11.849978,,,,,,
639,0,-52.059635,-4.474401,-0.451277,71.238358,-5.325532,45.380306,-45.232418,64.954399,18.059061,115.132866,16.687046,-11.742445,,,,,,
640,0,-52.055790,-4.285803,-0.267369,71.294052,-5.053937,45.547249,-45.450829,65.209198,18.075361,115.129669,16.917084,-11.616899,,,,,,
641,0,-51.998924,-4.036268,-0.011270,71.371658,-4.728611,45.851971,-45.295898,65.401024,18.275467,115.166412,17.183718,-11.451403,,,,,,
642,0,-51.930061,-3.944489,0.347725,71.426857,-4.400053,46.140190,-45.179668,65.590195,18.436087,115.281662,17.334875,-11.161143,,,,,,
643,0,-51.911526,-3.706385,0.605366,71.399132,-4.155944,46.459732,-45.026909,65.788666,18.530188,115.268028,17.658512,-10.748979,,,,,,
644,0,-51.869431,-3.633921,0.764022,71.388924,-3.973309,46.826481,-45.167248,66.001587,18.641830,115.342659,17.904112,-10.263839,,,,,,
645,0,-51.822426,-3.418898,0.851406,71.304329,-3.868069,47.156109,-45.122250,66.178047,18.770674,115.460350,18.185318,-9.731702,,,,,,
646,0,-51.745605,-3.272730,0.915307,71.271980,-3.780287,47.414124,-45.119469,66.352203,18.945414,115.647316,18.367680,-9.283671,,,,,,
647,0,-51.720592,-3.140981,0.940772,71.266655,-3.671045,47.629349,-45.082279,66.431419,19.135098,115.631592,18.769377,-8.920604,,,,,,
648,0,-51.668976,-3.029162,0.984096,71.225250,-3.571228,47.863483,-45.252247,66.345779,19.250402,115.733147,19.003027,-8.553669,,,,,,
649,0,-51.604454,-2.890449,0.964036,71.216423,-3.469927,48.049431,-45.074463,66.610863,19.403090,115.787086,19.194714,-8.289147,,,,,,
650,0,-51.598263,-2.766426,0.917137,71.215080,-3.409082,48.181019,-45.084587,66.625351,19.400776,115.819466,19.303896,-8.099494,,,,,,
651,0,-51.598534,-2.747243,0.994913,71.204048,-3.388190,48.201012,-45.134785,66.678841,19.439568,115.864166,19.432529,-8.041056,,,,,,
652,0,-51.559914,-2.709811,1.031418,71.203644,-3.365853,48.185375,-45.321621,66.556396,19.445065,115.852707,19.474018,-8.039784,,,,,,
653,0,-51.585754,-2.697068,0.925805,71.181267,-3.374936,48.142963,-45.385632,66.489319,19.431971,115.934723,19.450031,-8.007457,,,,,,
654,0,-51.614948,-2.803972,0.836253,71.113731,-3.463243,48.180843,-45.266346,66.576447,19.371675,115.949272,19.444519,-7.906784,,,,,,
655,0,-51.621449,-2.757351,0.685820,71.063477,-3.438989,48.232792,-45.301750,66.574684,19.359629,115.973923,19.400095,-7.765498,,,,,,
656,0,-51.653721,-2.687611,0.555543,70.967781,-3.490999,48.301907,-45.448006,66.478264,19.237358,115.884842,19.520578,-7.645101,,,,,,
657,0,-51.669067,-2.656008,0.460163,70.873337,-3.552199,48.357273,-45.491081,66.417809,19.248381,115.900963,19.497782,-7.404087,,,,,,
658,0,-51.669083,-2.717699,0.428992,70.770546,-3.635484,48.512730,-45.589626,66.436554,19.319407,115.924606,19.544291,-7.135591,,,,,,
659,0,-51.696728,-2.785639,0.379332,70.668457,-3.778168,48.644581,-45.482384,66.439789,19.447495,115.965050,19.612410,-6.817075,,,,,,
660,0,-51.671585,-2.718034,0.306386,70.556801,-3.968407,48.796913,-45.666168,66.249405,19.625067,115.991188,19.656614,-6.435216,,,,,,
661,0,-51.698444,-2.672195,0.242155,70.461433,-4.180721,49.022015,-45.568707,66.281738,19.851679,116.028145,19.675079,-5.977740,,,,,,
662,0,-51.686249,-2.689001,0.098322,70.276398,-4.432208,49.262917,-45.715557,66.122215,20.072231,116.079483,19.740299,-5.422125,,,,,,
663,0,-51.669384,-2.672033,0.026278,70.126083,-4.678436,49.552402,-45.810276,66.010933,20.339485,116.129478,19.774733,-4.845057,,,,,,
664,0,-51.662086,-2.591743,-0.053739,69.989769,-4.822873,49.853317,-45.688900,65.935791,20.608309,116.124855,19.827402,-4.259388,,,,,,
665,0,-51.647106,-2.539785,0.058663,69.825844,-4.823678,50.289547,-45.651672,65.926956,20.837423,116.148598,19.887760,-3.683830,,,,,,
666,0,-51.670101,-2.513354,0.173717,69.672325,-4.706402,50.773869,-45.719250,65.980232,20.979563,116.163025,19.899389,-3.159833,,,,,,
667,0,-51.697086,-2.508713,0.431892,69.580917,-4.582650,51.256107,-45.805889,66.070236,21.035803,116.198929,19.971092,-2.615561,,,,,,
668,0,-51.750725,-2.476891,0.701874,69.434364,-4.424536,51.684166,-45.922958,66.147423,21.145939,116.206291,20.048025,-2.048030,,,,,,
669,0,-51.798901,-2.423303,0.835632,69.288185,-4.262772,52.097343,-46.037682,66.215363,21.289814,116.254364,20.186962,-1.452707,,,,,,
670,0,-51.762280,-2.301568,0.895079,69.129074,-4.083292,52.490688,-46.152637,66.315033,21.372286,116.338089,20.338140,-0.871251,,,,,,
671,0,-51.721371,-2.185864,0.959266,68.979477,-3.928210,52.911228,-46.235565,66.391243,21.478468,116.423958,20.482649,-0.227255,,,,,,
672,0,-51.695538,-2.086971,1.027176,68.842545,-3.740826,53.330341,-46.417336,66.439575,21.459467,116.529617,20.638714,0.390906,,,,,,
673,0,-51.676868,-1.948158,0.995959,68.701118,-3.600187,53.718239,-46.393127,66.567810,21.521439,116.640251,20.826710,0.984476,,,,,,
674,0,-51.627663,-1.747606,0.956955,68.531746,-3.522790,54.116692,-46.314716,66.746735,21.668846,116.774101,21.008110,1.661018,,,,,,
675,0,-51.557068,-1.648855,0.869187,68.382950,-3.525790,54.451523,-46.094364,66.878143,21.800627,116.903137,21.160181,2.334253,,,,,,
676,0,-51.489246,-1.551783,0.756136,68.217094,-3.624991,54.801296,-46.090523,66.890907,22.006330,117.015717,21.245371,3.052186,,,,,,
677,0,-51.463432,-1.350735,0.531381,68.072563,-3.765308,55.184917,-46.046963,66.975243,22.271093,117.169647,21.297169,3.770594,,,,,,
678,0,-51.380730,-1.348193,0.416977,67.839020,-3.877171,55.605156,-46.008850,66.978378,22.513103,117.460190,21.145555,4.651576,,,,,,
679,0,-51.311573,-1.280324,0.223369,67.557068,-4.042024,56.100388,-46.034546,66.857224,22.672558,117.490593,21.096966,5.497263,,,,,,
680,0,-51.301392,-1.159281,0.072909,67.163925,-4.139067,56.696537,-46.033249,66.807198,22.755520,117.686058,20.701263,6.534195,,,,,,
681,0,-51.280510,-1.147569,-0.003996,66.665024,-4.277080,57.495773,-45.866249,66.953224,22.758520,117.946014,20.091618,7.777770,,,,,,
682,0,-51.398777,-1.029835,-0.119318,65.975838,-4.433341,58.362968,-45.757504,66.963097,22.582148,118.210724,19.274662,9.307340,,,,,,
683,0,-51.473850,-1.170442,-0.165005,65.145325,-4.649477,59.375992,-45.639465,67.027725,22.319595,118.679512,18.067991,11.181867,,,,,,
684,0,-51.562939,-1.234438,-0.239211,64.242401,-4.837687,60.402126,-45.581497,67.059242,22.058155,119.029335,16.931934,13.160121,,,,,,
685,0,-51.630333,-1.343441,-0.280831,63.343784,-5.126347,61.497101,-45.582397,67.003212,21.872147,119.329971,15.817830,15.102444,,,,,,
686,0,-51.765865,-1.574176,-0.271382,62.535339,-5.434124,62.466888,-45.620701,66.836594,21.866577,119.598526,14.924785,17.197874,,,,,,
687,0,-51.834652,-1.577191,-0.280533,61.742416,-5.742253,63.398907,-45.628971,66.717110,22.035093,119.942322,14.051544,19.062269,,,,,,
688,0,-51.970001,-1.569780,-0.328060,61.013500,-6.041660,64.274170,-45.726395,66.529007,22.283077,120.216408,13.289943,21.198116,,,,,,
689,0,-52.011799,-1.760411,-0.264662,60.306301,-6.368100,65.083862,-45.852085,66.259315,22.570183,120.472137,12.492435,23.246469,78.699905,32.603340,-2.372353,,,
690,0,-52.129498,-1.760820,-0.325338,59.590813,-6.652937,65.779243,-45.978546,66.134430,22.827190,120.971405,11.891473,25.418993,80.042168,32.099743,-1.623675,,,
691,0,-52.210533,-1.797587,-0.325418,58.842464,-6.941777,66.416428,-46.054222,66.062309,23.082493,121.411499,11.092362,27.665644,81.912056,31.602125,-0.171037,,,
692,0,-52.371414,-1.711262,-0.335248,58.144032,-7.343767,66.836342,-46.234604,65.927727,23.328049,122.012932,10.129836,29.988403,88.600243,29.967155,3.118007,,,
693,0,-52.501911,-1.633624,-0.423029,57.544811,-7.798644,67.143799,-46.455437,65.741966,23.515203,122.752869,9.089962,32.384014,89.779152,29.819443,3.580711,,,
694,0,-52.581364,-1.457453,-0.561439,57.066231,-8.178770,67.252869,-46.482914,65.819901,24.138639,123.589638,8.158911,34.808640,95.008774,29.212244,4.680167,,,
695,0,-52.697975,-1.318839,-0.588712,56.803848,-8.586262,67.192360,-46.622738,65.782806,24.770718,124.544006,7.127450,37.245979,97.842079,28.594053,5.155613,,,
696,0,-52.770958,-1.136743,-0.614363,56.694832,-8.912858,66.983376,-46.735413,65.804550,25.424374,125.568565,6.226057,39.659153,99.028954,28.538649,5.597525,,,
697,0,-52.781471,-1.061098,-0.596755,56.734245,-9.161281,66.632469,-46.843533,65.739769,26.003510,126.622871,5.519568,42.110394,102.186539,27.736126,6.106550,,,
698,0,-52.860455,-0.921981,-0.613878,56.899101,-9.301508,65.996674,-46.960503,65.511909,26.407728,127.756981,4.753716,44.753189,105.559830,27.082710,6.547990,,,
699,0,-52.925251,-0.699435,-0.620794,57.172367,-9.070185,65.210884,-47.016003,65.603218,26.814936,128.579254,3.466761,48.140038,111.903633,26.379623,7.571376,,,
700,0,-52.971210,-0.622861,-0.536639,57.540176,-8.827823,64.252304,-46.964066,65.834930,27.183859,129.571365,1.805192,51.793839,119.560112,24.547832,9.342495,,,
701,0,-53.027405,-0.546062,-0.419605,58.010303,-8.499025,63.120819,-47.198578,65.918213,27.492966,130.016983,-0.729555,54.644188,125.769165,22.500921,11.270576,,,
702,0,-53.084129,-0.597719,-0.275515,58.532036,-8.147958,61.962318,-47.144142,65.987747,27.679531,129.842331,-3.544659,56.433266,131.813370,20.140429,13.185231,,,
703,0,-53.125069,-0.559190,-0.228313,59.111881,-7.861026,60.702721,-47.127781,66.098465,27.780699,129.375931,-5.956364,57.191708,137.374390,17.791046,14.839825,,,
704,0,-53.078995,-0.456039,-0.273067,59.732773,-7.546361,59.359165,-46.959885,66.404625,27.860683,128.880829,-7.947961,57.118061,142.523209,15.089115,16.221914,,,
705,0,-52.961819,-0.236237,-0.501209,60.405376,-7.230148,57.897778,-46.935963,66.714554,27.936642,128.380020,-9.428967,56.502274,146.977463,12.547184,17.504841,,,
706,0,-52.823002,-0.139645,-0.824895,61.083302,-6.983839,56.561234,-46.686306,66.952545,27.985798,128.028458,-10.224478,55.669617,151.053467,10.337379,18.785116,,,
707,0,-52.691933,0.028613,-1.172535,61.792824,-6.593066,55.182091,-46.334133,67.178123,28.078663,127.780151,-10.616629,54.641350,154.378464,8.113838,20.003843,,,
708,0,-52.535816,0.135289,-1.491957,62.559238,-6.220369,53.859882,-46.128452,67.244331,28.093208,127.719414,-10.627227,53.273872,157.285309,6.376826,21.002390,,,
709,0,-52.306316,0.245590,-1.749742,63.404327,-5.755327,52.627483,-45.904163,67.179237,28.004955,127.859566,-10.495311,51.681889,159.454666,4.508067,21.578571,,,
710,0,-52.134594,0.307767,-2.074541,64.214828,-5.314445,51.434738,-45.746010,67.095955,27.900242,128.093292,-10.146826,49.976746,160.978287,2.747721,21.906837,,,
711,0,-52.001831,0.222185,-2.293088,64.937065,-4.773158,50.354240,-45.658249,66.975426,27.697701,128.247070,-9.841501,48.321693,162.485855,0.952862,22.524361,,,
712,0,-51.994122,0.106473,-2.501159,65.705765,-4.078182,49.315418,-45.596355,66.859329,27.407206,128.329117,-9.647552,46.721363,163.857620,-0.983580,23.372684,,,
713,0,-51.872288,-0.174671,-2.399941,66.397438,-3.536358,48.375771,-45.538975,66.781898,27.082541,128.261993,-9.698627,45.085388,164.503387,-3.183245,24.098032,,,
714,0,-51.851223,-0.334959,-2.440260,66.974686,-3.103408,47.263317,-45.481396,66.675873,26.746939,128.111145,-9.853570,43.476982,164.771790,-5.809498,24.810354,,,
715,0,-51.897614,-0.499590,-2.378085,67.502930,-2.855368,46.071888,-45.437260,66.545387,26.550070,127.852379,-10.539918,41.774380,164.621185,-8.596231,24.921059,,,
716,0,-51.931889,-0.773327,-2.194371,67.972191,-2.679744,44.972958,-45.394508,66.377129,26.585680,127.500488,-11.599463,39.879314,164.126724,-11.569839,24.380804,,,
717,0,-52.000774,-0.953045,-2.041144,68.426628,-2.428014,43.957401,-45.440479,66.143608,26.710075,126.979012,-12.809652,37.720676,163.348221,-14.519705,23.360060,,,
718,0,-52.087315,-1.068294,-1.833644,68.862671,-2.375959,42.985653,-45.534653,65.932587,26.829983,126.760933,-13.597395,35.760101,162.463196,-17.172691,22.110012,,,
719,0,-52.243645,-1.457849,-1.339721,69.258156,-2.444704,41.960278,-45.485649,65.773758,26.980179,126.379372,-14.467995,33.417183,161.507751,-19.281355,20.839214,,,
720,0,-52.469894,-1.872405,-0.832066,69.699776,-2.326658,40.835800,-45.623665,65.442047,26.968252,126.205948,-14.862717,31.303335,160.571030,-21.093378,19.525761,,,
721,0,-52.706356,-2.264391,-0.375696,70.058968,-2.233896,39.603752,-45.708530,65.228767,26.905649,125.994873,-15.209553,29.221352,159.764282,-22.434519,18.165152,,,
722,0,-52.928009,-2.617006,-0.108681,70.406784,-2.173681,38.465107,-46.038124,64.739212,26.623285,125.846741,-15.503614,27.355240,158.967056,-23.586985,16.974638,,,
723,0,-52.991970,-2.970495,-0.015016,70.678566,-2.226321,37.360748,-45.969086,64.728088,26.268732,125.794441,-15.503532,25.551334,158.300171,-24.253023,15.790093,,,
