Trajectories
100
,,sano:Uln,,,sano:MPH3,,,sano:Rad,,,sano:PIP3,,,sano:DIP3,,,sano:DIP4,,,
Frame,Sub Frame,X,Y,Z,X,Y,Z,X,Y,Z,X,Y,Z,X,Y,Z,X,Y,Z
,,mm,mm,mm,mm,mm,mm,mm,mm,mm,mm,mm,mm,mm,mm,mm,mm,mm,mm
1,0,148.704605,-97.507378,-2.398734,56.571995,-36.656319,54.013489,96.347816,-147.297989,2.878541,14.074918,12.930732,52.503952,-7.926148,39.838173,35.750561,,,
2,0,148.687027,-97.535271,-2.388828,56.587181,-36.653217,54.027740,96.265450,-147.342194,2.863941,14.057820,12.888359,52.473866,-7.926990,39.833702,35.745956,,,
3,0,148.725555,-97.579132,-2.368355,56.551792,-36.668289,54.004238,96.295944,-147.366013,2.851768,14.084397,12.861607,52.463356,-7.926796,39.836700,35.732082,,,
4,0,148.692307,-97.619194,-2.350163,56.566319,-36.660320,53.998501,96.173119,-147.416824,2.836135,14.083303,12.884145,52.469139,-7.931978,39.826443,35.721123,,,
5,0,148.684799,-97.651024,-2.344172,56.608154,-36.635399,54.021759,96.188354,-147.387650,2.869272,14.101522,12.875306,52.480186,-7.947351,39.812359,35.718529,,,
6,0,148.672409,-97.691078,-2.333225,56.593685,-36.643955,54.031792,97.642708,-147.307571,2.319828,14.100088,12.883933,52.476933,-7.920995,39.816990,35.722744,,,
7,0,148.626724,-97.719231,-2.269450,56.625874,-36.604977,54.066601,97.641174,-147.306625,2.313455,14.100678,12.895530,52.494148,-7.904175,39.784332,35.740086,,,
8,0,148.610764,-97.757690,-2.281989,56.649757,-36.605305,54.085659,97.529007,-147.324341,2.365883,14.108463,12.862263,52.455509,-7.888090,39.799480,35.728153,,,
9,0,148.619812,-97.777107,-2.259725,56.670586,-36.555626,54.119007,96.237274,-147.425751,2.948671,14.130774,12.856446,52.468689,-7.881293,39.799191,35.723717,,,
10,0,148.615326,-97.817268,-2.279331,56.695827,-36.525314,54.151615,96.307945,-147.564133,2.882814,14.114717,12.841681,52.461403,-7.899742,39.792870,35.720123,,,
11,0,148.615433,-97.859787,-2.282012,56.451160,-36.844528,54.000858,96.289421,-147.590866,2.833013,14.134369,12.803737,52.460495,-7.881667,39.781368,35.722057,,,
12,0,148.612961,-97.862549,-2.323298,56.444836,-36.873550,53.987373,97.519707,-147.480515,2.291319,14.141540,12.775270,52.459591,-7.870638,39.749733,35.721062,,,
13,0,148.622223,-97.881401,-2.399368,56.426495,-36.876873,53.938999,96.350441,-147.552353,2.766608,14.136861,12.728279,52.435032,-7.873687,39.742577,35.713032,,,
14,0,148.612900,-97.869392,-2.450649,56.435989,-36.941120,53.901409,96.427238,-147.555496,2.684339,14.154516,12.687243,52.421494,-7.870042,39.716038,35.706417,,,
15,0,148.585190,-97.892883,-2.502786,56.409016,-36.969936,53.887272,96.454346,-147.646133,2.630238,14.126294,12.628380,52.424084,-7.883975,39.698185,35.714462,,,
16,0,148.573639,-97.893265,-2.505374,56.404846,-36.974350,53.886826,96.470383,-147.680115,2.591860,14.128149,12.574624,52.424828,-7.897852,39.691135,35.712639,,,
17,0,148.568634,-97.878998,-2.565078,56.361927,-36.971405,53.873524,96.275627,-147.566071,2.586727,14.130061,12.487448,52.433506,-7.896080,39.686634,35.722172,,,
18,0,148.549683,-97.868233,-2.567057,56.360760,-36.970798,53.867203,96.310410,-147.572952,2.525746,14.155955,12.402020,52.447807,-7.894559,39.731094,35.734097,,,
19,0,148.516922,-97.848335,-2.568117,56.346489,-36.951805,53.884502,96.241943,-147.556915,2.507235,14.122542,12.545042,52.459576,-7.891923,39.728092,35.737617,,,
20,0,148.516602,-97.838242,-2.538272,56.351017,-36.901340,53.912506,96.166214,-147.498764,2.592684,14.001316,12.782079,52.429611,-7.933054,39.728706,35.733521,,,
21,0,148.483643,-97.777733,-2.557436,56.361904,-36.881783,53.938061,96.271812,-147.464264,2.638043,14.032893,12.827127,52.424992,-7.921650,39.773937,35.716492,,,
22,0,148.542557,-97.727280,-2.536276,56.357941,-36.858150,53.930992,96.134735,-147.404465,2.592543,14.075353,12.895929,52.429424,-7.916923,39.808826,35.732956,,,
23,0,148.538818,-97.671997,-2.507171,56.391441,-36.787487,53.968590,96.266190,-147.396698,2.648137,14.090851,12.964318,52.440567,-7.937937,39.806904,35.722496,,,
24,0,148.593567,-97.603920,-2.492408,56.421478,-36.786594,53.979279,96.327797,-147.407394,2.673905,14.098493,13.002438,52.474854,-7.924468,39.822910,35.752014,,,
25,0,148.619659,-97.553070,-2.451920,56.464096,-36.733303,54.043167,96.426117,-147.361847,2.696021,14.105300,13.019354,52.479984,-7.938902,39.824768,35.744781,,,
26,0,148.686157,-97.518723,-2.443517,56.485413,-36.717426,54.015461,96.247307,-147.258026,2.732178,14.136141,13.078648,52.482193,-7.915702,39.862690,35.755062,,,
27,0,148.695312,-97.465431,-2.478666,56.473412,-36.736263,53.926899,96.400627,-147.223419,2.699388,14.154959,13.092841,52.463379,-7.927408,39.854046,35.741024,,,
28,0,148.720215,-97.452873,-2.465968,56.515568,-36.728592,53.951061,96.512108,-147.169739,2.713483,14.156056,13.104369,52.437714,-7.920237,39.855175,35.748257,,,
29,0,148.773315,-97.391785,-2.460255,56.515827,-36.676846,53.983601,97.719910,-147.088486,2.179016,14.162865,13.098199,52.476028,-7.939855,39.857929,35.745285,,,
30,0,148.780441,-97.334587,-2.429442,56.537346,-36.669586,53.973614,97.818130,-147.077774,2.161739,14.160709,13.105168,52.465954,-7.939516,39.862049,35.751652,,,
31,0,148.776062,-97.344124,-2.441993,56.558601,-36.659344,53.985302,97.818161,-147.077789,2.161869,14.163788,13.104544,52.466152,-7.945866,39.870605,35.732826,,,
32,0,148.778687,-97.342804,-2.441001,56.561962,-36.658180,53.982338,97.892220,-147.131714,2.082705,14.152195,13.116539,52.477451,-7.954611,39.863071,35.735161,,,
33,0,148.797241,-97.349213,-2.422902,56.547737,-36.640160,54.011192,97.891533,-147.131287,2.079839,14.140751,13.093562,52.479733,-7.955966,39.861053,35.738422,,,
34,0,148.788376,-97.374374,-2.435748,56.558720,-36.655071,54.016525,96.702209,-147.196075,2.682887,14.156302,13.079347,52.471058,-7.933845,39.837090,35.751404,,,
35,0,148.750656,-97.441833,-2.457646,56.548138,-36.667480,53.985142,96.687622,-147.164749,2.724325,14.146844,13.086415,52.489304,-7.920073,39.830379,35.759399,,,
36,0,148.754898,-97.442528,-2.507052,56.555630,-36.679070,53.967590,96.591995,-146.915497,2.339436,14.146173,13.046228,52.445446,-7.915388,39.847290,35.739983,,,
37,0,148.745865,-97.483475,-2.539068,56.559708,-36.693958,53.957493,96.502457,-146.980164,2.285843,14.149553,13.041153,52.441578,-7.921205,39.820183,35.747093,,,
38,0,148.721527,-97.504845,-2.590319,56.550636,-36.719490,53.915199,96.504539,-147.038132,2.251581,14.155974,13.020765,52.425922,-7.918415,39.795315,35.738514,,,
39,0,148.711838,-97.543282,-2.630425,56.525944,-36.740803,53.907108,96.567024,-147.135834,2.167617,14.179605,13.009593,52.431133,-7.879743,39.801361,35.736095,,,
40,0,148.692749,-97.564186,-2.650304,56.520245,-36.791847,53.909451,96.428352,-147.128601,2.166373,14.180170,13.011297,52.419147,-7.878923,39.803883,35.738403,,,
41,0,148.652878,-97.605576,-2.680613,56.516140,-36.793400,53.919975,96.389137,-147.195160,2.084484,14.161768,12.957112,52.422935,-7.888324,39.761993,35.735210,,,
42,0,148.631287,-97.655846,-2.701822,56.524910,-36.761345,53.941368,96.345657,-147.246979,2.095886,14.157511,12.949800,52.413849,-7.885624,39.759026,35.744114,,,
43,0,148.632233,-97.675400,-2.723998,56.474949,-36.786015,53.915955,96.160095,-147.203369,2.080241,14.149349,12.958388,52.412880,-7.901388,39.767273,35.746372,,,
44,0,148.601242,-97.691429,-2.780663,56.472115,-36.788670,53.916248,95.937614,-147.175247,2.097959,14.144467,12.958617,52.394581,-7.875516,39.785259,35.755920,,,
45,0,148.579697,-97.676079,-2.790370,56.473888,-36.788982,53.917042,96.098808,-147.253876,2.175243,14.140912,12.944498,52.400764,-7.892708,39.775299,35.743500,,,
46,0,148.542343,-97.682762,-2.809749,56.487511,-36.800537,53.936153,95.944878,-147.219070,2.278977,14.106855,12.924152,52.422100,-7.895626,39.751095,35.739555,,,
47,0,148.529694,-97.695755,-2.776498,56.497658,-36.828850,53.925797,95.984901,-147.255798,2.351389,14.097486,12.937176,52.418533,-7.889013,39.789150,35.748020,,,
48,0,148.544373,-97.690117,-2.791281,56.475365,-36.813435,53.896549,96.098045,-147.329697,2.353446,14.120255,12.955721,52.421444,-7.890612,39.787407,35.751495,,,
49,0,148.533051,-97.700279,-2.769090,56.489944,-36.827541,53.934563,96.096733,-147.277588,2.430530,14.113985,12.964855,52.417301,-7.898479,39.793781,35.742855,,,
50,0,148.556854,-97.677589,-2.741231,56.503311,-36.796944,53.954285,96.043129,-147.340149,2.463788,14.094659,12.982975,52.427338,-7.883727,39.797489,35.755421,,,
51,0,148.516937,-97.674660,-2.716187,56.501324,-36.788322,53.973255,95.987625,-147.318985,2.529529,14.105817,12.953472,52.428295,-7.885331,39.805492,35.772259,,,
52,0,148.552567,-97.674446,-2.721723,56.519615,-36.770870,53.987129,96.270699,-147.346832,2.488769,14.103295,12.985625,52.464828,-7.865992,39.821632,35.766018,,,
53,0,148.577911,-97.636909,-2.698297,56.507969,-36.754116,53.978073,96.314323,-147.326859,2.498429,14.108342,12.943245,52.451496,-7.869538,39.813133,35.756962,,,
54,0,148.573044,-97.609398,-2.690473,56.525360,-36.731480,53.978580,96.399216,-147.284149,2.480366,14.089980,12.958691,52.450191,-7.887958,39.818256,35.753815,,,
55,0,148.586807,-97.588531,-2.658132,56.512688,-36.736355,53.973839,96.390709,-147.216522,2.546872,14.062214,12.962077,52.457504,-7.887975,39.829788,35.748646,,,
56,0,148.622620,-97.586151,-2.643891,56.504787,-36.738834,53.988850,96.429321,-147.167969,2.578358,14.061408,12.964474,52.468548,-7.884262,39.836109,35.752747,,,
57,0,148.605988,-97.575134,-2.645783,56.502186,-36.740234,53.995529,96.526909,-147.153809,2.544734,14.064492,12.944736,52.455601,-7.891707,39.846119,35.766247,,,
58,0,148.605179,-97.567070,-2.636845,56.529522,-36.717499,54.015102,96.579391,-147.102554,2.605610,14.071151,12.942603,52.456345,-7.914863,39.845036,35.750488,,,
59,0,148.599731,-97.560234,-2.593602,56.525421,-36.722752,54.015007,96.657845,-147.076279,2.642853,14.057390,12.939983,52.454533,-7.916587,39.843449,35.750435,,,
60,0,148.611542,-97.557808,-2.568298,56.519306,-36.702980,54.047913,96.344978,-147.264481,2.647198,14.056969,12.956361,52.482895,-7.911377,39.850803,35.783268,,,
61,0,148.618408,-97.538078,-2.539343,56.495136,-36.700542,54.039135,96.331093,-147.269836,2.652473,14.058212,12.932099,52.500317,-7.915327,39.850887,35.789482,,,
62,0,148.632172,-97.537773,-2.573111,56.507519,-36.703358,54.045803,96.371536,-147.223511,2.678495,14.060524,12.917415,52.473904,-7.916543,39.844803,35.751884,,,
63,0,148.625214,-97.540543,-2.529543,56.495766,-36.689709,54.030170,96.714149,-146.943024,2.764068,14.054811,12.941597,52.476257,-7.917022,39.846298,35.754284,,,
64,0,148.625534,-97.558800,-2.535464,56.478489,-36.702282,54.027172,96.632637,-146.871826,2.717182,14.056170,12.945799,52.483116,-7.913371,39.847584,35.754318,,,
65,0,148.623154,-97.558411,-2.514647,56.502708,-36.683029,54.027653,96.582458,-146.876328,2.697285,14.061786,12.941689,52.496498,-7.907930,39.842621,35.765636,,,
66,0,148.629425,-97.547188,-2.493587,56.499275,-36.700516,54.053543,96.569801,-146.945160,2.679116,14.064261,12.913685,52.481918,-7.915236,39.835358,35.757191,,,
67,0,148.630295,-97.547005,-2.487392,56.484470,-36.736347,54.011585,96.601646,-146.946060,2.702587,14.059856,12.908165,52.488926,-7.914014,39.833565,35.749157,,,
68,0,148.598083,-97.566719,-2.466077,56.481068,-36.744995,54.025654,96.219330,-147.208527,2.703703,14.050614,12.900346,52.497581,-7.912689,39.848392,35.755531,,,
69,0,148.616272,-97.619965,-2.467317,56.496239,-36.732910,54.041977,96.171387,-147.241318,2.679696,14.061077,12.930581,52.502632,-7.914463,39.848984,35.759663,,,
70,0,148.601028,-97.636665,-2.446125,56.453995,-36.728619,54.037296,96.279930,-147.315750,2.707738,14.065513,12.918083,52.500786,-7.907998,39.841785,35.758324,,,
71,0,148.602020,-97.639420,-2.435769,56.452641,-36.719120,54.056900,96.279175,-147.268402,2.778627,14.062375,12.912898,52.498901,-7.910256,39.847359,35.745731,,,
72,0,148.589355,-97.661263,-2.410494,56.472260,-36.744713,54.058559,97.453041,-147.155807,2.330253,14.083749,12.927899,52.488583,-7.912557,39.840694,35.744656,,,
73,0,148.589218,-97.659187,-2.411206,56.430725,-36.734379,54.046352,96.517075,-147.362579,2.697457,14.075253,12.919464,52.499214,-7.912934,39.845905,35.754303,,,
74,0,148.602448,-97.670349,-2.390957,56.458893,-36.737263,54.069927,96.524818,-147.378204,2.722810,14.064075,12.916128,52.488556,-7.916311,39.838905,35.747566,,,
75,0,148.592117,-97.665405,-2.372030,56.437084,-36.738125,54.087704,97.473465,-147.250549,2.337107,14.065438,12.894918,52.496059,-7.914227,39.833855,35.750969,,,
76,0,148.574280,-97.736839,-2.351854,56.455063,-36.730862,54.095222,97.417747,-147.229202,2.313659,14.074310,12.909060,52.503857,-7.908377,39.841949,35.760349,,,
77,0,148.592743,-97.737732,-2.339213,56.430584,-36.752949,54.052231,97.418037,-147.229370,2.314863,14.080745,12.911186,52.528519,-7.894853,39.820183,35.747356,,,
78,0,148.597015,-97.742317,-2.327039,56.438728,-36.741962,54.066067,96.312904,-147.338074,2.789736,14.077426,12.903920,52.496651,-7.878353,39.825043,35.748417,,,
79,0,148.558029,-97.744598,-2.327706,56.435650,-36.728237,54.080009,97.418945,-147.229935,2.318620,14.071772,12.903068,52.474335,-7.921330,39.831375,35.736485,,,
80,0,148.568787,-97.735016,-2.299637,56.434761,-36.747402,54.087585,97.416641,-147.228516,2.309004,14.071242,12.906329,52.483959,-7.911743,39.838573,35.759869,,,
81,0,148.569199,-97.731476,-2.279166,56.437172,-36.746979,54.086632,96.289810,-147.289780,2.838240,14.068982,12.902271,52.508118,-7.911212,39.834778,35.755459,,,
82,0,148.564545,-97.749649,-2.297844,56.436703,-36.793484,54.076752,97.459671,-147.257629,2.372761,14.051044,12.894777,52.478989,-7.895216,39.836651,35.746990,,,
83,0,148.571228,-97.738510,-2.266632,56.418446,-36.804008,54.074116,97.459976,-147.257812,2.374027,14.044782,12.882864,52.483284,-7.934066,39.817486,35.736298,,,
84,0,148.550354,-97.749443,-2.271810,56.413723,-36.810600,54.082603,96.400215,-147.428665,2.853591,14.032042,12.874382,52.465836,-7.932076,39.827343,35.744709,,,
85,0,148.543854,-97.759781,-2.297714,56.394855,-36.787201,54.055031,97.478409,-147.351288,2.374577,14.039940,12.887175,52.481369,-7.932982,39.823246,35.740494,,,
86,0,148.530960,-97.766792,-2.287850,56.397476,-36.769852,54.060993,96.394066,-147.409485,2.824329,14.035980,12.890730,52.474010,-7.917841,39.844322,35.736725,,,
87,0,148.501282,-97.787613,-2.317139,56.355156,-36.801418,54.037804,96.409958,-147.486435,2.764890,14.034622,12.879795,52.469868,-7.913935,39.830322,35.749767,,,
88,0,148.467697,-97.797226,-2.324494,56.366436,-36.818607,54.045078,96.220795,-147.416733,2.829080,14.039022,12.879508,52.464134,-7.915215,39.827385,35.747837,,,
89,0,148.450775,-97.812523,-2.315831,56.333889,-36.822426,54.029812,97.380379,-147.362381,2.394274,14.035809,12.882765,52.480137,-7.927817,39.826164,35.740482,,,
90,0,148.416321,-97.827736,-2.308596,56.346470,-36.811905,54.041016,96.226418,-147.420029,2.831608,14.037410,12.895267,52.497227,-7.915412,39.813965,35.731304,,,
91,0,148.421387,-97.810860,-2.266872,56.321175,-36.856537,54.061813,97.241417,-147.344894,2.352022,14.015878,12.913346,52.482750,-7.934997,39.815563,35.724716,,,
92,0,148.395523,-97.829041,-2.276506,56.322395,-36.869228,54.059372,96.197845,-147.444153,2.941137,14.002504,12.903432,52.492874,-7.929886,39.842648,35.756405,,,
93,0,148.404404,-97.826263,-2.285827,56.325035,-36.808559,54.094070,97.387581,-147.464005,2.438010,14.015789,12.910515,52.496708,-7.934823,39.865814,35.739185,,,
94,0,148.415100,-97.829636,-2.303692,56.300549,-36.842274,54.033131,97.432999,-147.482162,2.259937,14.059491,12.934112,52.487415,-7.934039,39.860672,35.740398,,,
95,0,148.414139,-97.802246,-2.304470,56.310555,-36.816486,54.015633,97.413857,-147.388794,2.259759,14.036561,12.926441,52.468899,-7.925385,39.848957,35.722176,,,
96,0,148.433502,-97.818748,-2.305305,56.323925,-36.788498,54.034977,97.317757,-147.400238,2.282486,14.031638,12.916857,52.464806,-7.940194,39.854897,35.735260,,,
97,0,148.443726,-97.778473,-2.284107,56.382523,-36.781921,54.033417,97.604256,-147.525314,2.162602,14.043059,12.927896,52.468384,-7.921289,39.850056,35.734077,,,
98,0,148.462128,-97.820763,-2.289516,56.363453,-36.777020,54.029667,97.296638,-147.305618,2.276047,14.056489,12.926069,52.467216,-7.902348,39.848209,35.737385,,,
99,0,148.459290,-97.783325,-2.248000,56.383766,-36.770870,54.033081,97.221825,-147.251221,2.351915,14.048172,12.912396,52.481628,-7.926088,39.843048,35.737797,,,
100,0,148.485229,-97.815353,-2.223833,56.383915,-36.787716,54.046696,97.222771,-147.251801,2.355886,14.046961,12.904469,52.461868,-7.942883,39.825375,35.732510,,,
101,0,148.506088,-97.816460,-2.183738,56.364258,-36.764915,54.068283,97.284966,-147.314026,2.320689,14.048366,12.908506,52.485050,-7.923156,39.852959,35.741993,,,
102,0,148.530304,-97.810905,-2.167372,56.375599,-36.764793,54.040829,96.190910,-147.379745,2.890785,14.070122,12.908384,52.490318,-7.912160,39.840839,35.756462,,,
103,0,148.530655,-97.811691,-2.168200,56.363182,-36.773006,54.037041,97.399582,-147.395599,2.293555,14.070601,12.906878,52.489395,-7.922331,39.849533,35.745907,,,
104,0,148.532608,-97.822723,-2.169427,56.366600,-36.752220,54.056938,97.307999,-147.248398,2.376122,14.054080,12.913128,52.488831,-7.927474,39.849789,35.732235,,,
105,0,148.529739,-97.790291,-2.125743,56.366875,-36.752560,54.055687,96.117950,-147.295319,2.951848,14.057580,12.939651,52.477707,-7.930401,39.849010,35.731895,,,
106,0,148.521912,-97.768364,-2.128882,56.335079,-36.724533,54.074768,96.119179,-147.304703,2.948369,14.070699,12.955343,52.503433,-7.941952,39.854111,35.744267,,,
107,0,148.520798,-97.767365,-2.130071,56.361370,-36.723431,54.062740,96.113937,-147.303894,2.949220,14.064258,12.941681,52.495735,-7.937072,39.863468,35.753918,,,
108,0,148.535019,-97.772934,-2.144156,56.359367,-36.723999,54.090546,97.220329,-147.201599,2.492963,14.051723,12.949764,52.492241,-7.940969,39.854626,35.739975,,,
109,0,148.535019,-97.772903,-2.144542,56.337543,-36.741043,54.072853,97.328812,-147.181641,2.425498,14.041599,12.938694,52.494419,-7.953163,39.861771,35.736908,,,
110,0,148.562790,-97.705025,-2.108948,56.376732,-36.758308,54.075539,96.191940,-147.237915,2.946017,14.041115,12.948522,52.506123,-7.933783,39.865826,35.748478,,,
111,0,148.553787,-97.695297,-2.158097,56.377819,-36.740692,54.045864,96.195137,-147.237305,2.944951,14.038311,12.934287,52.517113,-7.934247,39.866692,35.752666,,,
112,0,148.547760,-97.709854,-2.178925,56.370243,-36.750877,54.033943,96.191002,-147.236069,2.944779,14.042195,12.924673,52.503384,-7.940523,39.843555,35.754837,,,
113,0,148.530899,-97.709778,-2.183575,56.348221,-36.732918,54.037952,97.331215,-147.183167,2.435572,14.034170,12.959381,52.511749,-7.935239,39.851604,35.757957,,,
114,0,148.535889,-97.669151,-2.164531,56.355652,-36.716709,54.054817,97.460030,-147.257843,2.374265,14.053143,12.926057,52.514263,-7.941100,39.870113,35.761032,,,
115,0,148.531555,-97.710648,-2.183012,56.369133,-36.731377,54.065018,97.724655,-147.448456,2.197191,14.023369,12.938346,52.510731,-7.934348,39.884678,35.756805,,,
116,0,148.513245,-97.721870,-2.180420,56.356380,-36.750854,54.042988,97.499344,-147.385574,2.281036,14.045045,12.936379,52.511452,-7.964403,39.864502,35.747566,,,
117,0,148.508423,-97.769859,-2.149888,56.339909,-36.761578,54.053963,96.271034,-147.440979,2.896235,14.026484,12.952692,52.516541,-7.951644,39.833733,35.749298,,,
118,0,148.500977,-97.753876,-2.146428,56.358829,-36.752274,54.095657,96.172264,-147.305649,2.974064,14.047842,12.940290,52.517193,-7.947697,39.862217,35.761032,,,
119,0,148.499176,-97.752304,-2.124918,56.326412,-36.755894,54.091820,96.042763,-147.257370,2.966757,14.035213,12.959205,52.524601,-7.952768,39.847740,35.748348,,,
120,0,148.501160,-97.754097,-2.145835,56.358002,-36.731991,54.097107,96.204010,-147.364899,2.893710,14.044465,12.942802,52.500694,-7.955689,39.837337,35.747581,,,
121,0,148.500610,-97.760712,-2.155460,56.365528,-36.711998,54.112236,96.162094,-147.291672,2.932833,14.048470,12.927254,52.496803,-7.938039,39.858318,35.741829,,,
122,0,148.500885,-97.759354,-2.155386,56.393047,-36.715389,54.131741,97.272461,-147.220779,2.500891,14.052708,12.922065,52.512444,-7.941164,39.857639,35.744270,,,
123,0,148.518555,-97.760963,-2.122142,56.370090,-36.729393,54.129044,96.697060,-147.229462,2.771038,14.050869,12.933174,52.525734,-7.934767,39.865753,35.754189,,,
124,0,148.521210,-97.790512,-2.142150,56.368370,-36.705898,54.086712,96.106628,-147.266068,2.987932,14.048864,12.931100,52.503376,-7.952593,39.846107,35.744576,,,
125,0,148.504471,-97.792336,-2.147483,56.353397,-36.734840,54.087318,96.027336,-147.494370,3.107057,14.037850,12.920682,52.496403,-7.955687,39.837631,35.732807,,,
126,0,148.496307,-97.808266,-2.130695,56.361130,-36.714184,54.105156,96.005379,-147.492081,3.149234,14.037160,12.911029,52.511951,-7.951427,39.844383,35.737911,,,
127,0,148.517868,-97.818802,-2.103634,56.341618,-36.734795,54.139633,96.020302,-147.495102,3.095985,14.045399,12.922619,52.494850,-7.936498,39.836712,35.735672,,,
128,0,148.503754,-97.826927,-2.090073,56.368347,-36.758232,54.137623,95.925812,-147.414841,3.103072,14.059257,12.920271,52.502415,-7.931925,39.824406,35.741417,,,
129,0,148.505844,-97.826859,-2.111394,56.361115,-36.739086,54.108616,95.790031,-147.332825,3.120177,14.036263,12.913220,52.494122,-7.923926,39.831787,35.743141,,,
130,0,148.502426,-97.826752,-2.091294,56.350800,-36.740234,54.113365,95.881615,-147.319382,3.105571,14.059587,12.932484,52.492535,-7.916840,39.857681,35.734478,,,
131,0,148.503693,-97.826660,-2.091120,56.340099,-36.751965,54.098511,95.866745,-147.333862,3.075022,14.078197,12.960963,52.517311,-7.908819,39.846359,35.743004,,,
132,0,148.483261,-97.834282,-2.095728,56.338184,-36.745773,54.113083,95.904831,-147.322861,3.177269,14.086814,12.935895,52.528503,-7.909473,39.849091,35.749580,,,
133,0,148.473389,-97.833160,-2.082016,56.338505,-36.745499,54.112465,95.983032,-147.396088,3.145456,14.066715,12.943510,52.504158,-7.909132,39.848030,35.747490,,,
134,0,148.456238,-97.853859,-2.077868,56.330185,-36.760944,54.117123,96.081924,-147.426056,3.088018,14.067224,12.942981,52.505760,-7.926683,39.852417,35.734684,,,
135,0,148.461319,-97.889954,-2.065201,56.352039,-36.784756,54.123333,95.964516,-147.370285,3.101022,14.079912,12.961480,52.493877,-7.889494,39.871616,35.739983,,,
136,0,148.462479,-97.892319,-2.058747,56.304447,-36.791477,54.129906,95.990028,-147.378342,3.116263,14.085796,12.951109,52.520027,-7.880065,39.863605,35.758087,,,
137,0,148.463211,-97.891701,-2.058227,56.330681,-36.797482,54.109806,95.963669,-147.336197,3.098680,14.070223,12.952911,52.530094,-7.899040,39.849735,35.731796,,,
138,0,148.459320,-97.908829,-2.076656,56.319092,-36.770180,54.103630,96.008011,-147.417465,3.097296,14.091414,12.957217,52.520660,-7.895607,39.841816,35.736328,,,
139,0,148.467194,-97.924828,-2.014691,56.315086,-36.771854,54.123226,97.258759,-147.389297,2.496947,14.063063,12.940020,52.504688,-7.910137,39.843235,35.739868,,,
140,0,148.450958,-97.918259,-2.000561,56.295372,-36.752060,54.118992,96.093788,-147.375977,3.023030,14.076210,12.940022,52.501587,-7.908283,39.842686,35.736988,,,
141,0,148.452286,-97.910721,-1.991722,56.320190,-36.761425,54.129818,96.094337,-147.370407,3.018316,14.085073,12.931008,52.508492,-7.906880,39.841022,35.736481,,,
142,0,148.448227,-97.913193,-1.986769,56.152657,-36.870201,53.981079,96.088303,-147.370148,3.019030,14.091280,12.933862,52.504490,-7.906667,39.835026,35.730167,,,
143,0,148.455719,-97.929230,-1.952223,56.152065,-36.848900,53.990887,96.175049,-147.434677,3.025252,14.079088,12.918617,52.502331,-7.905735,39.843475,35.721985,,,
144,0,148.458618,-97.921074,-1.920922,56.169598,-36.819904,54.014088,96.065979,-147.303589,3.102851,14.077927,12.934507,52.501953,-7.907631,39.847637,35.732529,,,
145,0,148.469604,-97.919800,-1.913395,56.151867,-36.825275,54.030254,96.114822,-147.363770,3.024806,14.074669,12.935284,52.498581,-7.903060,39.853958,35.734772,,,
146,0,148.477905,-97.902687,-1.871810,56.169991,-36.803684,54.032520,96.060593,-147.318954,3.129952,14.053923,12.954002,52.513653,-7.899577,39.844963,35.746563,,,
147,0,148.499115,-97.896042,-1.866572,56.178867,-36.792263,54.041130,96.041573,-147.327087,3.138876,14.080992,12.934578,52.499973,-7.900061,39.846176,35.735634,,,
148,0,148.494553,-97.897369,-1.863469,56.128014,-36.785870,54.031113,96.032341,-147.329834,3.142148,14.067786,12.955804,52.504894,-7.918745,39.837376,35.726936,,,
149,0,148.476151,-97.919434,-1.860754,56.122330,-36.799194,53.995941,95.975792,-147.377274,3.221832,14.043968,12.945514,52.517715,-7.933806,39.836323,35.727493,,,
150,0,148.481873,-97.923691,-1.827459,56.081593,-36.820621,53.973396,95.832611,-147.330261,3.293935,14.063230,12.959207,52.531391,-7.919791,39.844814,35.750458,,,
151,0,148.465912,-97.912552,-1.820281,56.067532,-36.826584,53.988682,95.968498,-147.283417,3.246645,14.053656,12.957632,52.518265,-7.918693,39.821636,35.735748,,,
152,0,148.490097,-97.910156,-1.808478,56.067272,-36.806293,53.986141,95.834732,-147.350113,3.354984,14.049645,12.968862,52.519131,-7.933337,39.838219,35.733166,,,
153,0,148.473541,-97.929352,-1.770566,56.106205,-36.790195,54.054920,95.736290,-147.337372,3.288632,14.036310,12.971910,52.536121,-7.931969,39.829750,35.745342,,,
154,0,148.472015,-97.929169,-1.771123,56.108398,-36.833366,54.045406,95.758537,-147.354309,3.309855,14.045918,12.982330,52.543541,-7.945183,39.840668,35.754826,,,
155,0,148.456055,-97.944084,-1.779174,56.110001,-36.834332,54.030128,95.750679,-147.356140,3.409025,14.054082,12.976539,52.555462,-7.924061,39.822407,35.755184,,,
156,0,148.450165,-97.933960,-1.735446,56.111832,-36.808170,54.040077,95.704819,-147.343124,3.396048,14.061203,12.935530,52.550171,-7.944527,39.846893,35.760162,,,
157,0,148.432220,-97.944450,-1.728192,56.235180,-36.747337,54.248692,95.878464,-147.468246,3.417977,14.046771,12.916059,52.551407,-7.921760,39.831383,35.758812,,,
158,0,148.434769,-97.946281,-1.726314,56.228687,-36.816750,54.244289,95.840637,-147.468491,3.429418,14.037279,12.920279,52.541504,-7.931696,39.844570,35.746708,,,
159,0,148.419830,-97.972900,-1.716125,56.227264,-36.817719,54.256672,95.862877,-147.552734,3.451703,14.020207,12.925300,52.554554,-7.942946,39.839890,35.752373,,,
160,0,148.418594,-97.998741,-1.716334,56.210423,-36.807968,54.236717,97.248428,-147.447815,2.712095,14.044687,12.926634,52.565815,-7.935001,39.826313,35.749039,,,
161,0,148.399521,-97.991776,-1.700759,56.191185,-36.794453,54.225285,95.908592,-147.397247,3.344453,14.025213,12.913953,52.547165,-7.920453,39.811764,35.751770,,,
162,0,148.393967,-97.990288,-1.702927,56.179276,-36.800541,54.228333,97.323082,-147.502121,2.634803,14.021702,12.900920,52.576111,-7.923439,39.808125,35.754971,,,
163,0,148.401215,-97.995140,-1.689396,56.185459,-36.825680,54.235733,95.860558,-147.387131,3.344572,14.026625,12.909686,52.553688,-7.934523,39.829102,35.772011,,,
164,0,148.425308,-98.040154,-1.677995,56.187126,-36.800190,54.233501,95.874184,-147.397537,3.341184,14.036831,12.917156,52.569645,-7.939329,39.827293,35.756268,,,
165,0,148.398346,-98.058510,-1.684655,56.193241,-36.813957,54.232735,95.907227,-147.394424,3.343814,14.027655,12.947105,52.571587,-7.921671,39.852554,35.770317,,,
166,0,148.423187,-98.050110,-1.678436,56.194149,-36.807236,54.257286,95.794533,-147.293045,3.357282,14.040696,12.925912,52.579781,-7.910709,39.863987,35.765091,,,
167,0,148.417511,-98.084755,-1.707527,56.196362,-36.827652,54.272686,95.892799,-147.396790,3.351032,14.040736,12.922745,52.565121,-7.916532,39.819271,35.770893,,,
168,0,148.420761,-98.088661,-1.695241,56.195080,-36.844707,54.258713,95.794724,-147.334610,3.352149,14.029260,12.898298,52.598419,-7.931805,39.802330,35.756096,,,
169,0,148.407761,-98.089378,-1.697943,56.218555,-36.870495,54.260582,95.717819,-147.298187,3.401789,14.030427,12.907884,52.576893,-7.916616,39.817776,35.763062,,,
170,0,148.391190,-98.095947,-1.685555,56.223640,-36.889702,54.293804,95.723434,-147.367737,3.418534,14.000028,12.889646,52.584599,-7.921750,39.813324,35.765480,,,
171,0,148.373077,-98.101974,-1.680315,56.199490,-36.889755,54.294201,95.679642,-147.386734,3.433475,13.996285,12.891588,52.592304,-7.918067,39.819530,35.764637,,,
172,0,148.361343,-98.156242,-1.643006,56.136154,-36.895279,54.278484,95.707191,-147.451187,3.508358,14.000381,12.882392,52.599140,-7.940481,39.807503,35.781410,,,
173,0,148.305664,-98.162521,-1.639439,56.109734,-36.906643,54.286407,95.625137,-147.424652,3.495887,13.984670,12.909726,52.612400,-7.932211,39.815273,35.782166,,,
174,0,148.306854,-98.151062,-1.639174,56.140591,-36.866821,54.297909,95.622208,-147.498291,3.519088,13.981070,12.908694,52.616776,-7.927193,39.830658,35.783264,,,
175,0,148.290344,-98.168518,-1.605082,56.127342,-36.854122,54.295403,95.514740,-147.391968,3.588528,14.005590,12.886643,52.596931,-7.945518,39.834061,35.800697,,,
176,0,148.298126,-98.125076,-1.592181,56.125561,-36.819836,54.307579,95.586357,-147.457626,3.603080,14.006158,12.894882,52.610252,-7.973710,39.838718,35.788380,,,
177,0,148.297699,-98.129379,-1.634099,56.128220,-36.878452,54.307846,95.700905,-147.549545,3.590874,14.017669,12.924769,52.607090,-7.941897,39.829655,35.765411,,,
178,0,148.334183,-98.142525,-1.613238,56.110313,-36.864704,54.272533,95.612381,-147.475342,3.556936,14.011304,12.934950,52.574444,-7.917956,39.831596,35.780994,,,
179,0,148.326279,-98.119499,-1.628308,56.113991,-36.869854,54.267090,95.718536,-147.473221,3.527656,14.017154,12.902747,52.554363,-7.952330,39.810162,35.788834,,,
180,0,148.320358,-98.114975,-1.615784,56.114368,-36.905380,54.240162,97.144554,-147.568512,2.817081,14.015244,12.879723,52.580666,-7.938920,39.807022,35.793289,,,
181,0,148.345947,-98.129196,-1.625252,56.124142,-36.921612,54.243488,96.012535,-147.572556,3.399411,14.008770,12.874815,52.583885,-7.933451,39.805164,35.779808,,,
182,0,148.368851,-98.159233,-1.613427,56.109924,-36.901737,54.232681,95.922562,-147.517715,3.328777,13.997189,12.863172,52.564411,-7.930893,39.804996,35.779160,,,
183,0,148.366119,-98.132034,-1.615224,56.108715,-36.899311,54.205475,97.423294,-147.752319,2.605427,13.994580,12.856612,52.561741,-7.924013,39.797764,35.752735,,,
184,0,148.364838,-98.152931,-1.606272,56.096607,-36.881714,54.228138,95.865501,-147.491699,3.372377,13.999682,12.863126,52.563248,-7.926847,39.793671,35.750938,,,
185,0,148.370728,-98.150406,-1.602290,55.989845,-36.926647,54.106789,95.802879,-147.478287,3.431026,14.002625,12.875871,52.580620,-7.941916,39.778629,35.787369,,,
186,0,148.364517,-98.150314,-1.584229,55.993988,-36.935780,54.121334,95.764557,-147.394913,3.408753,14.001785,12.882874,52.582088,-7.935253,39.789207,35.770988,,,
187,0,148.351166,-98.141197,-1.587031,55.995926,-36.885536,54.134537,95.712715,-147.394287,3.491426,14.007191,12.864285,52.574249,-7.945369,39.761555,35.772118,,,
188,0,148.334793,-98.119209,-1.576567,55.992870,-36.890892,54.137592,95.903229,-147.585587,3.424086,13.995446,12.880017,52.577038,-7.934608,39.788006,35.774971,,,
189,0,148.352173,-98.081383,-1.574329,55.973038,-36.902611,54.133987,95.818123,-147.532043,3.448892,13.996449,12.870545,52.590733,-7.969917,39.802185,35.774548,,,
190,0,148.357712,-98.061096,-1.545263,55.964104,-36.901146,54.109550,95.690392,-147.409958,3.531631,13.993112,12.868198,52.591148,-7.954843,39.780666,35.785835,,,
191,0,148.368073,-98.073334,-1.559955,55.962242,-36.913990,54.098869,95.675278,-147.366364,3.463096,13.995140,12.854997,52.594360,-7.958809,39.782963,35.772942,,,
192,0,148.366287,-98.078934,-1.597525,55.945278,-36.930534,54.072517,95.719093,-147.433502,3.425692,13.986407,12.861587,52.576664,-7.974782,39.785500,35.757511,,,
193,0,148.401459,-98.058540,-1.613529,55.932037,-36.916126,54.035019,95.633469,-147.434875,3.396263,13.983127,12.859285,52.577961,-7.970015,39.767250,35.763615,,,
194,0,148.382446,-98.080254,-1.611564,55.969128,-36.888309,54.073059,95.601234,-147.434067,3.415187,13.977489,12.847054,52.571400,-7.948420,39.774147,35.768368,,,
195,0,148.378159,-98.074028,-1.633433,55.969814,-36.907726,54.066196,95.569626,-147.308487,3.393785,13.969624,12.846211,52.577171,-7.950878,39.772476,35.769833,,,
196,0,148.402832,-98.062737,-1.613055,55.963554,-36.915596,54.001732,95.460793,-147.364990,3.387600,13.960584,12.821328,52.567917,-7.952910,39.782700,35.761761,,,
197,0,148.403717,-98.116646,-1.595965,56.101784,-36.895267,54.204384,95.522408,-147.424606,3.403528,13.967495,12.823790,52.559319,-7.953335,39.757053,35.758255,,,
198,0,148.385864,-98.090553,-1.594056,56.108334,-36.921589,54.228741,95.487801,-147.468124,3.395070,13.966250,12.822073,52.578625,-7.954096,39.778458,35.783939,,,
199,0,148.400696,-98.112740,-1.596309,56.091682,-36.927662,54.228889,95.574242,-147.410782,3.379723,13.972290,12.820242,52.590351,-7.946801,39.780411,35.773705,,,
200,0,148.366974,-98.150688,-1.604264,56.118149,-36.937904,54.234901,97.049797,-147.568985,2.596151,13.971999,12.830545,52.569202,-7.952279,39.753593,35.772194,,,
201,0,148.362991,-98.146286,-1.618398,56.102993,-36.913460,54.210220,95.650497,-147.462479,3.301795,13.965227,12.834211,52.558495,-7.955243,39.754547,35.753162,,,
202,0,148.354980,-98.166374,-1.648624,56.089565,-36.923962,54.207211,95.690712,-147.419220,3.323382,13.977456,12.823996,52.557995,-7.928278,39.753651,35.757088,,,
203,0,148.340179,-98.158241,-1.638465,56.080139,-36.985306,54.205418,95.808563,-147.580643,3.311789,13.978638,12.809315,52.545731,-7.935649,39.759220,35.761360,,,
204,0,148.352615,-98.179832,-1.610073,56.053909,-37.000191,54.193245,95.803764,-147.623032,3.252138,13.961628,12.775752,52.545906,-7.940367,39.741997,35.771904,,,
205,0,148.370560,-98.158546,-1.612662,56.052906,-36.996532,54.207756,95.819199,-147.600632,3.237076,13.916808,12.716961,52.543903,-7.966151,39.722404,35.741207,,,
206,0,148.371979,-98.157166,-1.566471,56.021362,-37.033607,54.199314,95.654556,-147.534561,3.306617,13.908825,12.703767,52.551300,-7.990386,39.712643,35.753525,,,
207,0,148.371460,-98.174431,-1.454332,55.991749,-37.059681,54.259468,95.707550,-147.552902,3.376098,13.859912,12.680601,52.553921,-8.006419,39.703510,35.761646,,,
208,0,148.378738,-98.133415,-1.247322,55.959713,-37.036346,54.372330,95.650635,-147.478104,3.553866,13.771211,12.684913,52.592564,-8.088341,39.690033,35.784039,,,
209,0,148.339310,-98.028168,-0.905200,55.752766,-36.992222,54.388550,95.744400,-147.474106,3.884520,13.685158,12.724628,52.658619,-8.138954,39.715912,35.766945,,,
210,0,148.374451,-97.962234,-0.347905,55.689732,-36.865810,54.683132,95.976669,-147.403885,4.310244,13.576170,12.865383,52.775646,-8.209001,39.804985,35.824211,,,
211,0,148.415649,-97.759453,0.546081,55.582508,-36.644215,55.160923,96.276749,-147.445328,4.877911,13.522207,13.065865,52.992592,-8.275945,39.974892,35.873352,,,
212,0,148.471878,-97.530891,2.060937,55.504436,-36.275848,55.932079,96.699272,-147.389023,5.903568,13.475394,13.444321,53.235649,-8.338679,40.216125,35.943672,,,
213,0,148.641312,-97.256584,3.953130,55.566547,-35.634239,57.150352,96.873581,-146.957367,7.596115,13.545718,14.036963,53.614765,-8.319152,40.610455,36.087307,,,
214,0,149.089355,-96.765976,6.502965,55.704170,-34.638729,58.627373,97.898033,-146.930466,9.558999,13.804808,14.934592,54.156570,-8.209396,41.153851,36.273464,,,
215,0,149.737473,-95.961098,9.524248,56.106709,-33.302444,60.467876,98.739998,-146.274094,12.314933,14.268426,16.199629,54.932098,-7.851146,41.920547,36.588238,,,
216,0,150.731720,-94.800468,12.928432,56.950325,-31.564674,62.674774,100.090118,-145.610077,15.403054,15.000604,17.797964,56.106094,-7.252879,42.954208,37.314327,,,
217,0,151.893768,-93.239044,16.388073,58.396645,-29.375658,65.367615,101.637154,-144.593231,18.955149,16.134960,19.606298,58.348236,-6.412962,44.435070,39.608143,,,
218,0,153.243042,-91.224411,19.754629,60.388767,-26.817453,68.429688,103.408943,-142.774765,22.877651,17.737955,21.670933,61.811470,-5.049088,46.503727,43.553242,,,
219,0,154.759323,-88.809380,23.161470,62.539658,-24.126022,72.051666,104.829338,-140.558426,27.115688,19.806702,24.162161,66.170418,-3.407420,49.076084,48.532658,,,
220,0,156.311890,-85.977242,26.613895,65.060783,-21.248032,76.260094,106.580986,-138.182190,32.049385,22.115089,26.886177,71.061485,-1.273467,51.833271,53.614212,,,
221,0,158.056198,-82.807426,30.361422,67.435486,-18.160383,81.319084,108.740852,-135.213623,36.907143,24.696550,30.180557,76.313538,1.104938,55.046951,59.123272,,,
222,0,159.969986,-79.081184,34.518536,69.540543,-15.433289,87.295929,110.603218,-131.772888,42.106663,27.177055,33.626713,82.221771,3.589653,58.500370,65.092789,,,
223,0,162.146194,-75.002220,39.272522,71.724731,-11.730792,93.650566,112.771088,-127.774536,46.882034,29.553343,37.215786,88.948753,6.030092,62.099106,71.793907,,,
224,0,164.662872,-70.597633,44.740944,74.315414,-8.131670,100.484055,115.039886,-123.501289,51.283604,31.965740,40.868847,96.405373,8.607250,66.100838,79.350647,,,
225,0,167.400482,-65.914345,50.527534,76.994598,-4.263310,107.350479,117.697853,-118.620132,55.089001,34.645691,44.917805,104.197952,11.335242,70.379944,87.231186,,,
226,0,170.339600,-60.968792,56.684582,79.431915,-0.356510,113.978836,120.113190,-113.076508,58.727470,37.486862,49.216190,111.871101,14.401519,75.219566,95.080963,,,
227,0,173.343842,-55.849159,62.947750,82.119202,4.019897,120.459778,122.815460,-107.177032,62.161392,40.552887,54.116650,119.187027,17.788506,80.644844,102.469872,,,
228,0,176.408722,-50.543106,69.127899,84.832306,8.979027,126.563713,125.065506,-100.755402,65.770645,43.879505,59.604706,125.822990,21.687124,86.727615,109.123238,,,
229,0,179.530075,-44.979111,75.156921,87.704819,14.443420,132.202972,127.046852,-94.153885,69.294472,47.452496,65.737946,131.778900,25.787472,93.405228,114.996719,,,
230,0,182.660751,-39.111645,80.801613,90.789024,20.625679,137.349411,128.438919,-87.234077,73.317238,51.197395,72.555603,137.049438,30.022850,100.567024,120.094788,,,
231,0,185.860229,-32.952637,85.948532,94.082718,27.494968,141.927032,132.936676,-79.923607,75.819489,55.125294,79.988495,141.601517,34.416004,108.288330,124.396584,,,
232,0,189.025894,-26.395056,90.393059,97.590027,34.969555,145.943573,137.085052,-71.994980,79.083755,59.270332,87.957016,145.525269,38.970356,116.432220,127.981903,,,
233,0,192.140030,-19.519186,94.171806,101.254539,42.930660,149.433487,138.630859,-64.412704,82.652710,63.557884,96.417854,148.845016,43.715607,125.140892,130.851486,,,
234,0,195.307770,-12.368071,97.453583,104.882164,51.265522,152.408325,140.404388,-56.810272,85.798683,68.047974,105.297699,151.475800,48.657326,134.226593,133.041992,,,
235,0,198.313644,-5.052748,100.274200,108.609077,59.915447,154.793747,142.696106,-48.614975,88.739662,72.683838,114.504501,153.455811,53.857872,143.625153,134.466583,,,
236,0,201.265335,2.271376,102.801750,112.275085,68.654213,156.731033,145.093628,-40.529850,91.559929,77.341309,123.916008,154.819336,59.113720,153.245667,135.213837,,,
237,0,204.202332,9.579440,105.061081,115.915123,77.475838,158.234970,147.694092,-32.844387,93.486778,82.191666,133.531128,155.532959,64.601837,162.949127,135.278656,,,
238,0,207.210663,16.867783,107.332237,119.513184,86.277092,159.360748,149.672958,-24.683992,95.669327,86.994659,143.121185,155.743011,70.412666,172.632309,134.728210,,,
239,0,210.105591,23.849138,109.175606,122.952942,94.944633,160.080658,151.715500,-16.578688,97.199188,91.881699,152.529358,155.472839,76.494308,182.168732,133.613083,,,
240,0,213.011902,30.656477,111.023438,126.338837,103.505516,160.455780,153.668686,-8.588427,98.295799,97.013290,161.920227,154.820511,82.444748,191.604767,132.255524,,,
241,0,215.559143,37.318527,112.422821,129.739441,111.958084,160.453217,155.588501,-0.802627,99.000565,101.978340,171.083328,153.989639,88.352524,200.804855,130.685364,,,
242,0,218.147629,43.831463,113.582359,133.162064,120.280792,160.141693,157.231491,7.337518,99.664467,106.565170,180.013184,153.002258,94.084503,209.733124,128.992020,,,
243,0,220.615189,50.251640,114.367935,136.541138,128.426605,159.501770,159.436157,14.536493,99.548546,111.234901,188.634064,151.720078,99.926193,218.506332,127.040207,,,
244,0,223.258896,56.618801,115.012657,139.837265,136.364456,158.556122,161.707489,21.551971,99.055878,115.716179,197.030594,150.116913,105.240448,226.777802,124.744255,,,
245,0,225.664902,62.819214,115.150444,143.024658,144.176041,157.322327,163.881699,28.650482,98.603004,120.034828,205.217010,148.117966,110.342667,234.815491,122.090385,,,
246,0,227.943497,68.860855,114.952354,146.183258,151.793549,155.776093,166.047302,35.619942,98.291336,124.195686,213.099274,145.862732,115.245972,242.564209,119.116920,,,
247,0,229.986206,74.693520,114.359337,149.213303,159.161118,154.011398,168.039993,42.236607,97.655457,128.224106,220.732224,143.235138,120.044807,249.893524,115.849167,,,
248,0,232.047012,80.299217,113.728798,152.171555,166.280807,151.998077,169.808975,48.562359,96.815269,132.206039,228.062881,140.258575,124.920174,257.055115,112.264946,,,
249,0,234.145950,85.679520,113.129295,155.057419,173.149673,149.805923,171.410339,54.540699,95.864677,136.195953,235.150024,137.010986,129.665665,263.741180,108.411896,,,
250,0,235.829453,90.693802,112.115906,157.760651,179.682205,147.481873,172.978760,60.231373,94.713326,140.128372,242.009842,133.752182,134.373138,270.081207,104.455116,,,
251,0,237.559860,95.488602,111.116997,160.343277,185.760162,145.071243,174.426407,65.685814,93.383629,143.870377,248.309784,130.316757,138.906250,275.944946,100.448860,,,
252,0,239.269241,100.023766,110.168030,162.774689,191.454269,142.563004,175.873337,70.841957,91.886353,147.333313,254.045868,126.838890,143.085419,281.425415,96.482452,,,
253,0,240.678268,104.358215,108.832802,164.945969,196.782349,140.118134,177.212387,75.665863,90.253189,150.370956,259.434967,123.485825,146.823654,286.334564,92.724007,,,
254,0,241.957306,108.175056,107.244781,166.955353,201.598175,137.670502,178.435562,80.151123,88.652199,153.081619,264.241272,120.286537,149.971329,290.753815,89.065544,,,
255,0,243.258377,111.835396,105.705261,168.838715,205.986679,135.340088,179.473328,84.243118,87.062241,155.375946,268.619110,117.284279,152.687744,294.743500,85.677338,,,
256,0,244.456604,115.229126,104.024796,170.546921,209.927536,133.054565,180.471909,87.944687,85.419937,157.411713,272.655762,114.503059,154.981064,298.407837,82.460457,,,
257,0,245.563828,118.289528,102.315788,172.136826,213.655655,130.799011,181.321320,91.307526,83.887825,159.221344,276.290283,111.800598,156.969894,301.699463,79.446983,,,
258,0,246.515915,121.158089,100.607170,173.634323,217.069550,128.598770,182.053040,94.442719,82.356834,160.773193,279.634125,109.222382,158.627045,304.695648,76.519447,,,
259,0,247.341156,123.724419,98.906464,174.926239,220.189041,126.471626,182.695358,97.320259,80.913170,162.204712,282.759064,106.642677,160.149857,307.513428,73.648872,,,
260,0,247.983276,126.127945,97.346062,176.017578,223.115570,124.408035,183.153900,99.943985,79.556900,163.438644,285.573975,104.159248,161.511017,309.993835,70.878784,,,
261,0,248.562271,128.311996,95.874786,176.914520,225.745911,122.464493,183.542465,102.344872,78.260208,164.549408,288.145111,101.664223,162.698868,312.268036,68.123047,,,
262,0,249.037125,130.263580,94.494614,177.778488,228.145737,120.559731,184.357513,104.547874,76.595207,165.460052,290.399506,99.276543,163.635468,314.307129,65.558777,,,
263,0,249.464996,132.039383,93.147331,178.557632,230.347366,118.734550,184.570740,106.418289,75.422630,166.238403,292.625671,97.074974,164.471832,316.147522,63.105709,,,
264,0,249.780975,133.732925,91.815285,179.203766,232.372864,117.054359,184.818878,108.217178,74.182930,166.925858,294.523224,94.970901,165.168533,317.883087,60.855774,,,
265,0,250.039459,135.191086,90.541031,179.794388,234.212265,115.437553,184.964691,109.816574,73.087860,167.572128,296.289215,93.012283,165.837906,319.462799,58.792618,,,
266,0,250.212097,136.577942,89.291260,179.967957,235.974930,113.801880,184.625046,111.254082,72.409615,168.185059,297.868378,91.108253,166.611755,320.848724,56.759270,,,
267,0,250.299454,137.823486,88.224815,180.245422,237.433105,112.348396,185.150330,112.577843,71.069176,168.730072,299.315674,89.300682,167.206070,322.090759,54.791382,,,
268,0,250.341721,138.826050,87.244606,180.389969,238.757736,110.985153,184.655960,113.633972,70.582825,169.034866,300.509491,87.579735,167.606598,323.031921,52.918209,,,
269,0,250.407700,139.759918,86.291527,180.489014,239.826141,109.806358,185.229309,114.637321,69.324356,169.213379,301.474060,86.012405,167.787796,323.654083,51.075607,,,
270,0,250.439407,140.575089,85.381546,180.480392,240.715332,108.735733,184.883957,115.547180,68.886589,169.119217,302.263184,84.562607,167.647263,324.083557,49.331745,,,
271,0,250.495667,141.198181,84.470268,180.436951,241.447800,107.778549,185.498611,116.161530,67.590309,168.791626,302.822510,83.205910,167.214767,324.197510,47.522614,,,
272,0,250.494965,141.809052,83.547997,180.323441,241.985031,106.881546,184.719055,116.584038,67.283920,168.181656,303.191254,81.849785,166.347763,323.881927,45.652153,,,
273,0,250.536621,142.267166,82.640869,180.139282,242.409210,106.018707,185.503693,117.076523,66.072639,167.323105,303.367706,80.504883,165.433945,323.416107,43.809719,,,
274,0,250.617920,142.782776,81.946693,179.911865,242.763519,105.249245,185.011856,117.545570,65.787827,166.406097,303.446716,79.129944,164.517365,322.805511,41.884060,,,
275,0,250.497910,143.068848,81.011253,179.728928,243.078751,104.502914,185.261612,117.409042,64.011711,165.382278,303.433868,77.645500,163.484802,322.077362,39.836132,,,
276,0,250.438446,143.438919,80.186005,179.493378,243.364380,103.713409,184.168625,117.939903,63.930607,164.303574,303.253326,76.155739,162.207657,320.991791,37.728836,,,
277,0,250.434341,143.805038,79.481850,179.261032,243.577866,102.959183,185.082214,117.829071,62.312492,163.504044,303.178558,75.078148,161.614700,320.804474,36.475853,,,
278,0,250.397034,144.097427,78.623657,179.028976,243.561172,102.208809,183.776077,118.283844,62.168007,163.358841,303.299286,74.656792,161.443741,321.083618,36.072472,,,
279,0,250.249741,144.306122,77.625877,179.023636,243.319092,101.546669,184.909470,118.243500,60.389938,163.448364,303.336945,74.444328,161.395538,321.274963,35.768707,,,
280,0,250.199265,144.632492,76.787659,179.055023,243.259354,101.167786,183.489136,118.620033,60.075500,163.329346,303.365936,74.205750,161.255081,321.404419,35.532879,,,
281,0,250.247238,144.883484,76.208939,179.144318,243.258926,100.838783,185.001022,118.733650,58.193501,163.258331,303.366760,74.056480,161.109375,321.602478,35.423939,,,
282,0,250.442505,145.290970,75.777603,179.260300,243.450729,100.759399,185.213638,119.174110,57.206028,163.246048,303.450684,73.869354,160.933273,321.752350,35.325462,,,
283,0,250.489319,145.640381,75.028732,179.656418,243.610962,100.644936,183.876175,119.835014,57.297535,163.264740,303.517609,73.728981,160.650681,321.904480,35.228748,,,
284,0,250.630615,146.055115,74.325981,180.245255,243.699646,100.458939,185.318207,120.056313,55.958435,163.402802,303.663391,73.570755,160.450958,322.067322,35.136650,,,
285,0,250.750870,146.467270,73.516304,180.606918,243.969299,100.315033,185.102905,120.575920,55.851128,163.558868,303.840698,73.338196,160.255203,322.240723,34.988010,,,
286,0,250.993164,146.929337,72.888718,180.927155,244.174179,100.185432,184.769791,121.050407,55.874935,163.650192,304.014069,73.179962,160.119431,322.464203,34.837486,,,
287,0,251.112289,147.326706,72.102448,181.246216,244.454285,100.165947,184.633163,121.468430,55.875835,163.673080,304.121307,73.111717,159.865677,322.623352,34.835857,,,
288,0,251.208069,147.659836,71.563805,181.425446,244.572983,100.060371,184.732941,121.803413,55.725021,163.598495,304.175140,73.023499,159.677521,322.723114,34.778149,,,
289,0,251.358688,147.926437,71.280937,181.606308,244.750549,99.891998,184.829086,122.088242,55.452583,163.645432,304.342285,72.891396,159.601120,322.976868,34.681183,,,
290,0,251.559204,148.146027,71.325920,181.876190,244.934113,99.806778,185.034485,122.256340,55.200497,163.868896,304.538025,72.815613,159.731857,323.139496,34.593719,,,
291,0,251.844650,148.286011,71.517494,182.290863,245.117172,99.831558,185.266891,122.414749,55.013355,164.279068,304.739685,72.794044,159.887604,323.291351,34.567596,,,
292,0,252.164001,148.419052,71.651062,182.817780,245.328903,99.901665,185.496643,122.666458,54.955017,164.684738,304.889801,72.810608,160.118713,323.346893,34.625927,,,
293,0,252.570297,148.586914,71.553177,183.480133,245.501007,100.011932,185.852371,122.881264,54.970669,165.204895,305.036835,72.902954,160.319504,323.282562,34.709904,,,
294,0,253.022964,148.753235,71.306755,184.210999,245.584167,100.088371,186.201569,123.127945,55.060429,165.855927,305.151886,72.999031,160.755173,323.347260,34.843372,,,
295,0,253.484283,148.806091,71.054222,184.915894,245.639404,100.344780,186.534058,123.285728,55.342461,166.523972,305.220734,73.264915,161.237396,323.380188,35.159466,,,
296,0,253.933853,148.795242,70.946953,185.617767,245.518372,100.809273,186.875198,123.378456,55.676266,167.293655,305.122803,73.866516,162.072220,323.540710,35.850258,,,
297,0,254.256577,148.569382,70.848206,186.224152,244.858093,101.445930,187.312302,123.331528,55.985325,167.994278,304.805481,74.812286,162.711487,323.351257,36.830982,,,
298,0,254.723572,148.112579,71.282005,186.813126,244.130463,102.399376,187.853836,122.995209,56.277512,168.703278,304.253662,76.108932,163.372986,322.971252,38.305435,,,
299,0,255.245422,147.401657,72.002907,187.419647,243.188629,103.746437,188.359772,122.451950,56.662189,169.230682,303.373901,77.761589,163.880646,322.354767,40.104195,,,
300,0,255.784866,146.409775,72.945694,187.974396,241.800446,105.305611,189.027420,121.476334,57.251770,169.680923,302.103210,79.604324,164.121521,321.098389,41.976639,,,
301,0,256.374878,145.014984,74.086266,188.759399,239.962082,106.971977,188.481491,120.300499,58.675617,170.085526,300.476562,81.591515,164.438156,319.709900,44.073906,,,
302,0,257.139374,143.345718,75.356575,189.369202,237.984802,108.766418,190.363632,118.483673,59.103443,170.517654,298.508759,83.675385,164.650192,317.837341,46.291000,,,
303,0,257.731506,141.138199,76.327293,189.927246,235.632660,110.739372,190.060959,116.460701,61.169369,170.809921,296.068359,85.851944,164.775299,315.420288,48.499454,,,
304,0,258.460052,138.734161,77.541801,190.432083,232.792725,112.737022,190.835968,113.877808,62.421764,171.066101,293.223663,88.046898,164.816422,312.676056,50.748608,,,
305,0,259.219666,135.905350,78.800621,190.962158,229.598404,114.773773,191.751968,110.878845,63.811192,171.215775,289.986786,90.200882,164.824738,309.446533,52.996677,,,
306,0,260.025848,132.711014,80.209435,191.399719,225.964005,116.835037,192.762039,107.357475,65.179161,171.363678,286.276794,92.348824,164.732437,305.765900,55.173012,,,
307,0,260.974792,129.203049,81.709503,191.849014,221.929962,118.802078,193.859573,103.500877,66.387909,171.460373,282.200043,94.426262,164.677582,301.761292,57.387932,,,
308,0,261.959473,125.194954,83.122742,192.350311,217.482971,120.788658,194.948395,99.189606,67.648537,171.540436,277.694427,96.584724,164.510727,297.251495,59.574940,,,
309,0,262.825012,120.785683,84.300606,192.811493,212.621658,122.737770,196.123947,94.579536,68.822304,171.705261,272.847809,98.745781,164.565094,292.498749,61.871964,,,
310,0,263.877411,116.207733,85.589027,193.338501,207.429459,124.653191,197.391174,89.748619,69.965729,171.890259,267.618256,100.860634,164.650284,287.472809,64.077240,,,
311,0,264.924988,111.270454,86.881584,193.886887,201.935196,126.464325,198.540283,84.742844,71.083176,172.256989,262.131042,102.918434,164.909470,282.019989,66.150658,,,
312,0,266.171509,106.081596,88.312004,194.569412,196.190735,128.212921,199.811264,79.438690,72.171173,172.491074,256.355225,104.730309,165.155640,276.231018,68.051254,,,
313,0,267.325409,100.646812,89.534920,195.395584,190.296951,129.802536,201.117599,73.779045,73.015137,173.096375,250.460892,106.485992,165.492386,270.230621,69.751556,,,
314,0,268.706390,94.832169,90.558594,196.360275,184.266586,131.172592,203.305664,67.149040,73.237320,173.497574,244.036682,107.772636,165.815262,264.079376,71.134216,,,
315,0,270.054047,88.685349,91.255875,197.414932,178.127518,132.388672,204.839478,60.955223,74.060394,174.189194,237.691956,108.821686,166.138138,257.312195,72.105995,,,
316,0,271.515533,82.578896,91.992584,198.476227,171.863327,133.383026,206.327454,54.639244,74.943474,174.964935,231.140076,109.553497,166.411011,250.554947,72.753059,,,
317,0,272.813934,76.405617,92.515900,199.427597,165.436371,134.177963,207.810074,48.053722,75.781250,175.425476,224.467911,110.084259,166.880478,243.753433,73.263245,,,
318,0,274.190765,70.097252,92.828690,200.311752,158.855072,134.812119,209.179184,41.355225,76.542580,175.930145,217.809189,110.675629,167.135483,236.724640,73.724823,,,
319,0,275.566345,63.696304,93.011398,201.176193,152.089325,135.307663,210.605820,34.580906,77.116913,176.515244,210.943634,111.021088,167.658997,229.620102,73.928665,,,
320,0,276.925568,57.207115,93.223083,201.988113,145.317307,135.671722,211.924820,27.682077,77.470764,177.100784,204.021149,111.262833,168.130188,222.642090,74.164589,,,
321,0,278.240845,50.628830,93.513817,202.709488,138.525162,135.987045,213.311295,20.851604,77.613014,177.682373,197.053848,111.323845,168.630661,215.390930,74.111183,,,
322,0,279.431152,43.891453,93.829155,203.360443,131.672592,136.119522,214.674774,13.986265,77.654266,178.221497,190.117172,111.299728,169.302872,208.538544,74.051208,,,
323,0,280.560242,37.283855,94.082039,204.094116,125.025078,136.152023,216.041077,7.131166,77.591110,178.789337,183.257507,111.133942,169.584213,201.471848,73.890862,,,
324,0,281.645508,30.716923,94.219238,204.679459,118.524200,135.978943,217.386627,0.363352,77.432274,179.402054,176.520203,110.795517,170.230469,194.402435,73.376938,,,
325,0,282.752777,24.296398,94.257904,205.349304,112.147133,135.635406,218.611328,-6.270355,77.220100,180.029648,169.987991,110.199280,170.795166,187.857880,72.735229,,,
326,0,283.812378,18.025288,94.081863,206.059158,106.034134,135.221863,219.727951,-12.677698,76.981689,180.520035,163.587952,109.385109,171.301315,181.050507,71.731728,,,
327,0,284.800934,12.014637,93.736816,206.946289,99.973358,134.707809,220.918137,-19.105165,76.362854,180.947830,157.396194,108.444786,171.573837,174.495193,70.619759,,,
328,0,285.781281,6.320884,93.175674,207.477814,94.243073,133.948776,221.809998,-24.959196,76.325394,181.279648,151.386002,107.340805,171.919739,168.421341,69.470268,,,
329,0,286.656647,0.859208,92.441277,208.196457,88.684898,133.133148,222.642075,-30.552519,76.090927,181.686798,145.655701,106.243500,172.270569,162.365845,68.208344,,,
330,0,287.500458,-4.443645,91.667801,208.824951,83.486191,132.180298,223.461670,-35.865269,75.521988,182.087906,140.227631,105.057739,172.589096,156.770844,66.998840,,,
331,0,288.276611,-9.371140,90.885284,209.339325,78.540611,131.112747,224.193497,-41.004486,74.854332,182.465347,135.122040,103.795418,173.017136,151.563690,65.613068,,,
332,0,288.990906,-14.112305,90.136047,209.802612,73.866814,130.032501,224.916153,-45.890038,74.138519,182.901276,130.373596,102.546402,173.360367,146.472977,64.239349,,,
333,0,289.618805,-18.557518,89.403625,210.209000,69.459740,128.915985,225.455536,-50.407436,73.284943,183.407410,125.901878,101.179688,174.180817,142.115051,62.819286,,,
334,0,290.155762,-22.769133,88.766754,210.642654,65.346191,127.735077,226.117310,-54.616001,72.382851,183.990952,121.814545,99.799103,174.807999,137.785873,61.372932,,,
335,0,290.660858,-26.791893,88.232460,211.083572,61.562218,126.561043,226.654739,-58.338329,71.397934,184.675568,117.999100,98.306610,175.754639,133.965408,59.808895,,,
336,0,291.321411,-30.573599,87.798141,211.565140,58.110012,125.363960,227.205048,-61.869820,70.339554,185.418411,114.509605,96.770164,176.399887,130.029617,58.174980,,,
337,0,291.812225,-34.060680,87.257812,212.051544,54.901707,124.156059,227.855286,-65.031837,69.404602,186.125031,111.244026,95.251694,177.489532,126.912994,56.600235,,,
338,0,292.323212,-37.254478,86.608223,212.610260,51.999058,122.915428,228.558563,-67.998360,68.596054,186.811996,108.274193,93.805374,178.300583,123.824486,55.065224,,,
339,0,292.839203,-40.160194,85.828018,213.140701,49.276272,121.694229,228.832245,-71.128174,67.434517,187.451828,105.534866,92.346680,179.029327,120.958618,53.586060,,,
340,0,293.338318,-42.710716,84.938362,213.608139,46.796440,120.444962,229.276871,-73.693504,66.582870,188.065552,103.062973,91.022560,179.693527,118.293915,52.149040,,,
341,0,293.598145,-45.104233,83.888420,214.197952,44.660007,119.306152,229.691818,-76.035141,65.742287,188.639114,100.783318,89.602844,180.395584,116.023560,50.641548,,,
342,0,294.197815,-47.196404,83.253181,214.605774,42.678272,118.113525,230.063965,-78.131386,64.931511,189.158295,98.757751,88.130104,180.970490,113.855072,49.145615,,,
343,0,294.576752,-49.072250,82.465187,214.790253,40.925434,116.800056,230.384964,-79.957222,64.101875,189.587646,96.965714,86.701805,181.637741,111.966873,47.650581,,,
344,0,294.647949,-50.903805,81.493393,215.226074,39.354080,115.762169,230.664261,-81.597824,63.336113,190.054810,95.317513,85.305595,182.290024,110.279243,46.192699,,,
345,0,295.169739,-52.318970,80.939842,215.279282,37.963242,114.542854,231.051437,-83.141472,62.582359,190.490128,93.919922,84.025429,182.903198,108.834877,44.865978,,,
346,0,295.190643,-53.753696,80.105598,215.549652,36.742439,113.447418,231.434814,-84.428894,61.689541,190.898270,92.671982,82.747040,183.519089,107.617943,43.595455,,,
347,0,295.521210,-54.913963,79.460091,215.796982,35.711380,112.412720,231.773666,-85.512451,60.664677,191.292633,91.636772,81.614395,184.126343,106.624168,42.438278,,,
348,0,295.741974,-55.895077,78.756027,216.074951,34.760231,111.366089,232.100525,-86.408440,59.730961,191.583313,90.652702,80.457214,184.203323,105.388893,41.315414,,,
349,0,296.024231,-56.673340,78.078888,216.263382,33.965019,110.380569,232.404480,-87.120331,58.915798,191.850433,89.774620,79.280533,184.797485,104.640381,40.045860,,,
350,0,296.209290,-57.412571,77.415718,216.456238,33.340729,109.397034,232.597687,-87.781456,58.187782,192.141541,89.098457,78.070824,185.220108,103.765907,38.719276,,,
351,0,296.520203,-58.049297,76.851562,216.624527,32.762909,108.485962,232.688828,-88.346779,57.637367,192.350739,88.443871,76.851631,185.493576,103.006485,37.446522,,,
352,0,297.049866,-58.534149,76.497635,216.839188,32.316708,107.574493,232.843292,-88.943817,57.140213,192.505951,87.835083,75.769943,185.721756,102.268204,36.276226,,,
353,0,296.834778,-59.098164,75.612038,217.062576,31.872734,106.739815,233.061005,-89.551277,56.648659,192.679916,87.326820,74.750244,185.618317,101.499397,35.373211,,,
354,0,297.000214,-59.585770,74.991257,217.226608,31.470127,106.054497,233.178772,-89.947380,56.133537,192.871506,86.798317,73.814156,185.922150,101.158936,34.407730,,,
355,0,297.153351,-60.018505,74.447029,217.370926,31.135088,105.363693,233.286484,-90.380859,55.720810,193.064926,86.368843,72.992165,186.205246,100.438545,33.422836,,,
356,0,296.929840,-60.580490,73.786575,217.472458,30.762920,104.806671,233.322769,-90.857574,55.325504,193.222870,86.028648,72.304924,186.444992,100.051308,32.714436,,,
357,0,297.239960,-60.887417,73.601112,217.560928,30.246412,104.445908,233.382050,-91.295273,54.972080,193.551498,85.727013,72.203323,186.645218,99.923676,32.658192,,,
358,0,297.299255,-61.355042,73.357666,217.622528,29.671288,104.393669,233.435745,-91.644104,54.633846,193.661667,85.226227,72.329964,186.776047,99.580452,32.754314,,,
359,0,297.342560,-61.774124,73.467140,217.567368,29.191391,104.429939,233.630463,-91.990044,54.369747,193.663864,84.808456,72.380760,186.466766,98.827560,32.741695,,,
360,0,297.643524,-62.220516,74.005836,217.452438,28.791145,104.520935,233.664780,-92.368782,54.363277,193.280045,84.163948,72.375015,186.481567,98.479675,32.774471,,,
361,0,297.164398,-62.802502,73.913376,217.291306,28.362816,104.676102,233.585251,-92.803856,54.589752,192.953613,83.602272,72.394852,186.253708,97.856071,32.788475,,,
362,0,297.341095,-63.051796,74.198570,217.038925,27.967623,104.823952,233.430405,-93.220016,54.820656,192.626862,83.080276,72.405022,185.985397,97.312149,32.759735,,,
363,0,297.271637,-63.338303,74.317635,216.703552,27.519510,104.899422,233.309662,-93.538757,54.922096,192.325989,82.694710,72.484222,185.715668,96.767845,32.709091,,,
364,0,297.195465,-63.564449,74.469826,216.338165,27.130596,104.978767,233.307068,-93.935555,54.907364,191.729019,82.079208,72.411972,185.459137,96.381264,32.697487,,,
365,0,296.936218,-63.877018,74.446098,216.078094,26.756245,104.981850,233.309814,-94.156006,54.741962,191.524734,81.820305,72.488075,185.251175,96.032104,32.637997,,,
366,0,297.119904,-63.949772,74.788147,215.731995,26.486876,104.892189,233.360580,-94.326065,54.580399,191.283417,81.562241,72.435410,185.111481,95.831116,32.582661,,,
367,0,297.147308,-64.087326,74.953117,215.539215,26.284210,104.765602,233.513840,-94.439171,54.289700,191.064804,81.349907,72.329964,185.012115,95.748253,32.526291,,,
368,0,297.194672,-64.154480,75.046722,215.434555,26.162951,104.612694,233.641968,-94.452728,53.970028,190.829132,81.138939,72.149246,185.015732,95.789940,32.463234,,,
369,0,297.231567,-64.136169,75.079483,215.349380,26.156649,104.406075,233.889099,-94.487648,53.673229,190.853256,81.160164,71.984131,185.026535,95.854820,32.284832,,,
370,0,297.331512,-64.128075,75.157219,215.460266,26.256985,104.172180,234.113876,-94.393402,53.490433,191.017380,81.268501,71.781235,185.181808,96.003090,32.077278,,,
371,0,297.476685,-64.080864,75.248741,215.590302,26.386759,104.003227,234.314362,-94.290901,53.492577,191.445343,81.579491,71.644844,185.462845,96.145119,31.875868,,,
372,0,297.674469,-64.065018,75.318901,215.789886,26.550175,103.867874,234.358215,-94.115746,53.648495,191.856293,81.750511,71.471687,185.893509,96.394112,31.726114,,,
373,0,297.902039,-64.087891,75.337029,215.969177,26.657652,103.806847,234.496002,-94.047791,53.921009,192.125061,81.851250,71.339417,186.302872,96.521873,31.583317,,,
374,0,298.148529,-64.120880,75.334938,216.275543,26.784191,103.695145,234.679413,-94.009804,54.176434,192.554031,82.026436,71.304199,186.604675,96.526680,31.484325,,,
375,0,298.462524,-64.179352,75.296074,216.654526,26.957794,103.687820,234.930237,-93.984711,54.360870,193.106339,82.333160,71.360374,186.914276,96.494118,31.456661,,,
376,0,298.418152,-64.357597,75.005478,217.035065,27.104767,103.700890,235.241043,-94.042854,54.583778,193.555893,82.444969,71.377365,187.235107,96.500755,31.430655,,,
377,0,298.669067,-64.396309,74.925346,217.307175,27.150936,103.694336,235.473663,-94.120735,54.733463,193.812332,82.519043,71.370285,187.598846,96.530556,31.467152,,,
378,0,298.878418,-64.511459,74.846954,217.610382,27.246250,103.647530,235.567352,-94.024979,54.920052,194.322357,82.698006,71.300789,187.979187,96.547241,31.416945,,,
379,0,299.571747,-64.448441,75.186226,217.801636,27.287941,103.638199,235.585770,-93.954834,55.088829,194.780396,82.790642,71.228973,188.397263,96.594147,31.417112,,,
380,0,299.724274,-64.581200,75.193367,217.984833,27.282547,103.624603,235.667770,-94.010086,55.246769,195.120499,82.803001,71.136993,188.788284,96.665222,31.479027,,,
381,0,299.515320,-64.763260,75.013405,218.032913,27.219259,103.612427,235.752991,-94.094879,55.312626,195.292267,82.721268,71.042488,188.766113,96.358772,31.497690,,,
382,0,299.872284,-64.891151,75.278969,218.038971,27.126694,103.589005,235.837616,-94.243385,55.273823,195.339447,82.593674,70.921028,188.950211,96.294006,31.485830,,,
383,0,299.917236,-65.053749,75.390137,217.988174,26.996426,103.617836,235.960526,-94.354813,55.213066,195.368423,82.436234,70.851845,189.065918,96.205551,31.507566,,,
384,0,299.904846,-65.197823,75.461060,217.969345,26.804972,103.684341,235.993134,-94.490013,55.159264,195.397995,82.263779,70.860161,189.402313,96.362045,31.661663,,,
385,0,299.699371,-65.516716,75.416733,217.974472,26.617861,103.829239,236.014542,-94.659218,55.130154,195.483322,82.076759,70.937004,189.503540,96.274033,31.883516,,,
386,0,299.712952,-65.772827,75.563156,217.998184,26.408972,103.949165,236.023956,-94.744179,55.161850,195.589935,81.879570,71.035797,189.625397,96.302177,32.244137,,,
387,0,299.889954,-65.906441,75.892128,218.029236,26.204014,104.155167,236.065720,-94.858017,55.243614,195.760239,81.725250,71.249374,189.819534,96.560341,32.875816,,,
388,0,299.904510,-66.144630,76.044182,217.992157,25.943659,104.439583,236.048325,-94.969528,55.340488,196.028427,81.533356,71.566338,190.056198,96.750763,33.603756,,,
389,0,299.881561,-66.476418,76.309364,217.958450,25.571720,104.842766,236.004730,-95.144531,55.570347,196.321472,81.337799,72.111450,190.323807,97.252281,34.767982,,,
390,0,299.784821,-66.841751,76.644371,217.865967,25.098415,105.383881,235.975601,-95.417740,55.889179,196.661453,81.110832,72.919388,190.790970,97.426453,35.879570,,,
391,0,299.671875,-67.364464,77.164909,217.691635,24.555969,106.090363,235.975174,-95.825783,56.171352,196.948013,80.814270,73.885628,191.221603,97.527451,37.165871,,,
392,0,299.570221,-67.957237,77.875328,217.496948,23.967657,106.948593,235.923782,-96.286888,56.527855,197.086044,80.384392,75.070465,191.560165,97.586151,38.719479,,,
393,0,299.359009,-68.589355,78.689392,217.130127,23.165424,107.958672,235.919281,-96.886597,56.998978,197.142014,79.846115,76.415382,191.789871,97.648224,40.416569,,,
394,0,299.113098,-69.350609,79.640038,216.696899,22.309227,109.096413,235.671555,-97.425308,57.493053,197.125061,79.322762,77.984718,192.135803,97.453560,42.190208,,,
395,0,298.813446,-70.099091,80.685349,216.291779,21.418310,110.293762,235.469162,-98.140266,58.099503,197.090775,78.765671,79.751572,192.290146,97.571678,44.291084,,,
396,0,298.258789,-70.961121,81.501984,215.816696,20.452787,111.634949,235.180710,-98.822083,58.734455,196.922043,78.116592,81.661964,192.313736,97.444695,46.511040,,,
397,0,297.820374,-71.744797,82.500565,215.394806,19.476276,113.108009,234.763336,-99.394165,59.488449,196.737839,77.521423,83.825279,192.239761,97.261627,48.865860,,,
398,0,297.426086,-72.502724,83.562508,215.135742,18.440630,114.870232,234.276993,-100.157593,60.181229,196.261719,76.778458,86.152740,191.850616,96.955185,51.402046,,,
399,0,296.829865,-73.309128,84.459480,214.525543,17.369940,116.553329,233.645447,-100.960869,60.999496,195.605133,75.991478,88.595322,191.242752,96.493065,54.069309,,,
400,0,296.061310,-74.137978,85.338989,213.906311,16.197887,118.457748,232.857727,-101.719582,62.023602,194.761719,75.172722,91.144547,190.531464,96.067162,56.748428,,,
401,0,295.098877,-74.903755,86.076942,212.964737,15.012798,120.416122,231.793915,-102.324699,63.005142,193.685074,74.324791,93.806892,189.489594,95.570740,59.517189,,,
402,0,294.017822,-75.649620,86.959839,211.733826,13.774124,122.369583,230.602829,-103.131088,63.928783,192.328278,73.393036,96.574150,188.178558,94.930405,62.327930,,,
403,0,292.696075,-76.363808,87.823441,210.257309,12.480308,124.313751,229.245544,-103.922531,64.833481,190.678284,72.420753,99.424118,186.536194,94.316994,65.231171,,,
404,0,291.185486,-77.028618,88.568123,208.492249,11.131579,126.233238,227.765778,-104.707359,65.670532,188.700104,71.452965,102.289200,184.514465,93.606201,68.132408,,,
405,0,289.459412,-77.637192,89.269371,206.477676,9.775590,128.096664,226.008942,-105.561981,66.391899,186.443756,70.396820,105.102669,182.188522,92.915794,71.074471,,,
406,0,287.500061,-78.222038,89.883011,204.167343,8.400009,129.796188,224.027328,-106.351730,67.044685,183.868729,69.291412,107.860352,179.455856,92.209290,73.867302,,,
407,0,285.243530,-78.729256,90.315895,201.626617,7.011051,131.369324,221.733322,-107.077576,67.642723,180.932190,68.151093,110.400955,176.336380,91.357437,76.519577,,,
408,0,282.311127,-79.168587,90.307953,198.820969,5.611564,132.688202,219.310501,-107.880913,68.123543,177.686096,66.890594,112.786102,172.750977,90.480995,79.011520,,,
409,0,279.555267,-79.590736,90.260704,195.797104,4.195225,133.844238,216.515274,-108.712212,68.507027,174.041428,65.640327,114.866096,168.767212,89.520233,81.276352,,,
410,0,276.573090,-79.880569,89.940468,192.509094,2.791967,134.675735,213.627335,-109.609489,68.723518,170.071793,64.233620,116.690979,164.343796,88.427567,83.288261,,,
411,0,273.321564,-80.127403,89.359657,188.924057,1.299846,135.255035,210.438675,-110.536758,68.784447,165.761185,62.815784,118.178139,159.580032,87.273933,85.081734,,,
412,0,269.862640,-80.336746,88.528351,185.095428,-0.197970,135.501083,207.121216,-111.451180,68.632095,161.072098,61.295986,119.368301,154.401947,86.119865,86.536247,,,
413,0,266.207794,-80.509682,87.561836,180.901230,-1.612028,135.350296,203.875504,-112.462074,68.279457,156.018127,59.702805,120.191101,148.727249,84.802223,87.767052,,,
414,0,262.299225,-80.664360,86.428177,176.503357,-3.094160,134.949005,200.445312,-113.468353,67.631157,150.475784,57.920952,120.662666,142.562164,83.383347,88.639191,,,
415,0,258.266144,-80.838013,85.103699,171.978165,-4.463140,134.350418,196.891479,-114.453430,66.856400,144.515411,56.055489,120.810303,135.958725,81.811844,89.195694,,,
416,0,254.050140,-80.960457,83.596359,167.255615,-5.873269,133.499680,193.165100,-115.379776,65.845871,138.291946,54.149658,120.609703,129.179077,80.147118,89.467705,,,
417,0,249.741898,-81.133835,81.991272,162.393173,-7.272801,132.401703,189.345657,-116.455193,64.713005,132.002457,52.131687,120.157913,122.366875,78.339691,89.548347,,,
418,0,245.404572,-81.213753,80.247803,157.319778,-8.669116,131.062988,185.456985,-117.436073,63.350121,125.686142,50.188698,119.457642,115.062805,76.559616,89.187698,,,
419,0,240.955841,-81.262642,78.315430,152.133881,-10.048437,129.545853,181.613342,-118.494423,61.917194,119.391098,48.156998,118.514931,108.032188,74.794922,88.767075,,,
420,0,236.474472,-81.340538,76.243309,146.949081,-11.442364,127.909317,177.668640,-119.578758,60.422676,113.278755,46.140987,117.476006,100.595375,72.595779,87.989906,,,
421,0,231.955399,-81.463806,73.999924,141.900604,-12.800376,126.132248,173.709274,-120.632996,58.782345,106.735107,44.089912,116.042297,93.345169,70.385582,87.192780,,,
422,0,227.330948,-81.543938,71.619354,136.733551,-13.965630,124.202843,169.890717,-121.611702,57.127899,100.428787,41.971516,114.453659,86.248108,68.371140,86.375397,,,
423,0,222.738541,-81.775589,69.197159,131.343765,-15.485255,121.890663,166.336472,-122.467560,55.493732,94.163635,39.803177,112.742783,79.165886,66.303055,85.468369,,,
424,0,218.118454,-81.982384,66.750061,126.054901,-16.799141,119.660500,162.982666,-123.410576,53.728916,87.855751,37.631973,110.833885,72.154305,64.311188,84.496552,,,
425,0,213.561707,-82.300461,64.494347,120.717445,-18.297945,117.207985,158.078506,-125.256302,51.418961,81.575211,35.435490,108.824806,65.130547,62.010986,83.197372,,,
426,0,209.120178,-82.617661,62.298405,115.570122,-19.676147,114.935326,154.178497,-126.396370,49.627815,75.419464,33.294758,106.782120,58.129124,59.597076,81.766777,,,
427,0,204.794113,-82.959267,60.137028,110.435959,-21.017559,112.511475,150.439270,-127.584648,47.774754,69.162819,30.925909,104.538780,51.249912,57.136353,80.239609,,,
428,0,200.564301,-83.313377,57.953217,105.589668,-22.246593,110.365532,146.639999,-128.663437,46.120331,63.321598,28.731773,102.495789,44.774559,54.750416,78.720718,,,
429,0,196.459106,-83.651840,55.786251,100.991974,-23.388477,108.274399,143.105713,-129.719421,44.465828,57.924282,26.795694,100.542847,38.910275,52.653740,77.072159,,,
430,0,192.533951,-83.927910,53.574093,96.629318,-24.445786,106.210510,139.522507,-130.818176,42.911758,52.855762,24.992401,98.673103,33.254971,50.728989,75.754341,,,
431,0,188.715286,-84.210129,51.359158,92.513725,-25.503563,104.219032,136.326859,-131.818924,41.407654,48.185940,23.360935,96.896423,28.043451,48.981190,74.405861,,,
432,0,185.048065,-84.492233,49.138172,88.682648,-26.446362,102.309891,131.270416,-133.043076,40.673798,43.863445,21.906652,95.307381,23.211721,47.271622,73.290581,,,
433,0,181.489105,-84.842690,46.970985,85.052017,-27.263386,100.451965,128.220551,-133.980011,39.242165,39.908600,20.623983,93.808861,18.873558,45.868492,72.366669,,,
434,0,178.116608,-85.202675,44.930595,81.611038,-28.146294,98.726814,125.664574,-134.793320,37.668507,36.406147,19.604557,92.407486,15.109007,44.876984,71.567322,,,
435,0,175.054184,-85.469757,43.160137,78.330780,-29.036839,97.094543,122.883636,-135.557953,36.288582,33.204201,18.775320,91.176430,11.889705,44.153561,70.884750,,,
436,0,171.802017,-85.992233,41.441360,75.231964,-29.787668,95.554436,119.896423,-136.413132,35.053879,30.176485,17.986126,89.849525,8.738571,43.396770,70.020348,,,
437,0,168.983200,-86.459908,40.074276,72.272629,-30.476892,94.115120,117.734009,-137.142502,33.599876,27.251007,17.181158,88.603928,5.705544,42.622627,69.075714,,,
438,0,166.288467,-86.965126,38.783295,69.612617,-31.041399,92.823425,115.411240,-137.827087,32.506203,24.489481,16.371529,87.407394,2.900314,41.842716,68.188393,,,
439,0,163.800034,-87.474228,37.453892,67.129219,-31.624090,91.522911,113.666260,-138.302795,31.478045,22.063023,15.758964,86.316750,0.339559,41.188374,67.343048,,,
440,0,161.416458,-87.978096,36.128918,64.817650,-32.193893,90.265099,110.854836,-139.308685,30.716213,19.840391,15.139444,85.229591,-1.929100,40.635540,66.525986,,,
441,0,159.152863,-88.482483,34.744972,62.733852,-32.792126,89.065964,109.263123,-140.125931,29.804497,17.842638,14.525093,84.228638,-4.071981,40.088444,65.770294,,,
442,0,157.230591,-88.822762,33.518356,60.851650,-33.300045,87.945831,107.163124,-140.902466,28.990963,15.991559,14.005347,83.283745,-6.072862,39.459404,64.885391,,,
443,0,155.147919,-89.473289,32.144150,59.160423,-33.861141,86.905220,105.547142,-141.723221,28.251772,14.065105,13.305844,82.166191,-7.951379,38.738060,63.913284,,,
444,0,153.650391,-89.890709,31.003363,57.531410,-34.495926,85.742371,104.140762,-142.380005,27.442446,12.478661,12.604014,81.186729,-9.823885,37.973896,62.840431,,,
445,0,151.875809,-90.568260,29.649435,56.262211,-34.915283,84.790588,102.620155,-142.997818,26.708576,11.136477,12.146335,80.276253,-11.270611,37.371582,61.888454,,,
446,0,150.585663,-91.025406,28.550816,55.120850,-35.317169,83.799309,101.332962,-143.763123,26.002346,10.011626,11.778482,79.268524,-12.432839,36.916073,60.694839,,,
447,0,149.233368,-91.552803,27.443150,54.084469,-35.734322,82.860107,100.313980,-144.469772,25.291630,9.124980,11.522932,78.255165,-13.320028,36.644276,59.567322,,,
448,0,147.996719,-92.127769,26.311834,53.199783,-36.065048,81.911797,98.964462,-145.113434,24.589352,8.393306,11.364075,77.210068,-14.049690,36.520432,58.469364,,,
449,0,146.936325,-92.651779,25.337736,52.433807,-36.353466,80.878960,98.002632,-145.523621,23.891130,7.768932,11.271513,76.089127,-14.613584,36.385075,57.282028,,,
450,0,146.025223,-93.109787,24.385839,51.715134,-36.553509,79.812943,97.136841,-145.919739,23.212719,7.254008,11.288919,74.950310,-15.031113,36.352020,55.959888,,,
451,0,145.209045,-93.581779,23.453560,51.071770,-36.765831,78.724762,97.415497,-146.237823,22.517273,6.820962,11.312812,73.626839,-15.408259,36.448586,54.541985,,,
452,0,144.527084,-94.012161,22.621519,50.465439,-36.653122,77.738174,95.415558,-146.960846,22.010286,6.478172,11.460693,72.268707,-15.588581,36.556778,53.019100,,,
453,0,144.005127,-94.392784,21.805567,49.940125,-36.615406,76.634392,94.895493,-147.369263,21.444511,6.190172,11.623638,70.836739,-15.770279,36.631626,51.285400,,,
454,0,143.568954,-94.721725,21.009485,49.548313,-36.536911,75.505775,94.303154,-147.737152,20.792915,5.836368,11.769443,69.281662,-16.007658,36.697338,49.382786,,,
455,0,143.251678,-94.971550,20.231857,49.179951,-36.378384,74.405319,93.850815,-147.949142,20.344610,5.519109,11.928801,67.578575,-16.293402,36.621273,47.352680,,,
456,0,142.977036,-95.237549,19.370453,48.877544,-36.194893,73.250244,93.789040,-148.276093,19.931061,5.185051,12.081752,65.901901,-16.573463,36.493317,45.206211,,,
457,0,142.770782,-95.496368,18.511909,48.617912,-36.010925,72.093285,93.683891,-148.476669,19.502584,4.874149,12.182139,64.059166,-16.792683,36.366058,42.927166,,,
458,0,142.617264,-95.673096,17.709887,48.431046,-35.823296,70.887093,93.549095,-148.407150,19.048552,4.590702,12.300582,62.171711,-17.012232,36.233536,40.553856,,,
459,0,142.491302,-95.843636,16.850943,48.306198,-35.540417,69.688805,93.614311,-148.612717,18.387478,4.385416,12.414134,60.215744,-17.134800,35.952324,38.104595,,,
460,0,142.373047,-96.041611,15.957273,48.254742,-35.379787,68.576286,93.314125,-148.786041,17.645008,4.244281,12.409230,58.984222,-17.189121,35.926876,37.169727,,,
461,0,142.565491,-96.199348,15.242673,48.277573,-35.822205,67.903931,92.784996,-148.858704,16.886274,4.487579,12.110590,59.017906,-17.165766,35.957211,37.270485,,,
462,0,142.401428,-96.484917,14.409074,48.212200,-36.315208,67.479561,92.852196,-148.991547,16.349754,4.353622,11.677033,58.829628,-17.227587,35.636280,37.227371,,,
463,0,142.481125,-96.679100,13.822887,48.289566,-36.708435,66.996956,92.866776,-149.146149,15.759329,4.273243,11.237789,58.692616,-17.254675,35.361160,37.167530,,,
464,0,142.588242,-96.949142,13.363914,48.606098,-36.884968,66.585945,92.986656,-149.317841,15.163715,4.443879,11.039991,58.574196,-17.181293,35.170467,37.171207,,,
465,0,142.707199,-97.207642,12.896594,48.832016,-37.017029,66.226074,92.935005,-149.550278,14.681576,4.699509,10.981877,58.408199,-17.001083,35.133526,37.084835,,,
466,0,142.790771,-97.407700,12.430712,49.033848,-37.122169,65.913849,92.883743,-149.723846,14.312011,4.877556,10.926338,58.254417,-16.856985,35.073997,37.019875,,,
467,0,142.802917,-97.548157,11.973561,49.233852,-37.162373,65.557205,92.813843,-149.776703,14.023149,5.032676,10.819653,58.111454,-16.756763,35.022926,36.972404,,,
468,0,142.747055,-97.637718,11.484524,49.347942,-37.253517,65.299057,92.487617,-149.811234,13.540543,5.132014,10.744881,58.018475,-16.696432,34.973976,36.932121,,,
469,0,142.686844,-97.691040,11.054499,49.454006,-37.321167,65.040970,92.157059,-149.809555,13.116947,5.185466,10.638249,57.947044,-16.656544,34.937180,36.898975,,,
470,0,142.654068,-97.803162,10.644595,49.557484,-37.347427,64.812172,91.853928,-149.866669,12.713474,5.245794,10.566600,57.838844,-16.625271,34.875805,36.856674,,,
471,0,142.591141,-97.881027,10.276480,49.638542,-37.327801,64.558105,91.520660,-149.889526,12.351789,5.284795,10.465701,57.760220,-16.589027,34.839748,36.826160,,,
472,0,142.548813,-97.974922,9.971805,49.741520,-37.321476,64.385086,91.207977,-149.928391,12.053547,5.312505,10.384361,57.676258,-16.596918,34.772995,36.783119,,,
473,0,142.506592,-98.042793,9.651148,49.837223,-37.184589,64.261162,90.895393,-149.941269,11.739320,5.280632,10.256565,57.601818,-16.595394,34.723087,36.756382,,,
474,0,142.451782,-98.068054,9.375760,49.683907,-37.665287,64.087036,90.570251,-149.911530,11.470362,5.295166,10.146151,57.511639,-16.618170,34.645477,36.745682,,,
475,0,142.443939,-98.122047,9.060180,49.609779,-37.772766,63.815674,90.292038,-149.910477,11.161212,5.259960,10.009774,57.434849,-16.638237,34.516773,36.718632,,,
476,0,142.429001,-98.176369,8.725718,49.627460,-37.893120,63.593910,91.386108,-150.147064,11.310089,5.281651,9.899277,57.353264,-16.651501,34.480911,36.691265,,,
477,0,142.415359,-98.189514,8.442710,49.830692,-38.186028,63.481583,92.481506,-150.342468,11.510418,5.351647,9.814360,57.260723,-16.594923,34.417999,36.692192,,,
478,0,142.423386,-98.223457,8.112960,49.949127,-38.263554,63.324184,91.752403,-150.173920,10.905166,5.421931,9.779817,57.192471,-16.555067,34.410053,36.651615,,,
479,0,142.401245,-98.231506,7.825071,50.038937,-38.293465,63.143059,92.375526,-150.199554,10.892166,5.483996,9.707785,57.128441,-16.519859,34.384949,36.620266,,,
480,0,142.411743,-98.231834,7.491489,50.112858,-38.337650,62.991737,92.598953,-150.217804,10.692933,5.560279,9.701658,57.068100,-16.505133,34.339001,36.617783,,,
481,0,142.449081,-98.251587,7.220277,50.563194,-38.336094,62.982201,92.646614,-150.166794,10.542940,5.763518,9.711084,57.007236,-16.449423,34.314693,36.591156,,,
482,0,142.478638,-98.249649,6.973038,51.590904,-38.310230,63.231712,92.673889,-150.083420,10.322947,5.887536,9.763437,57.016617,-16.208261,34.529415,36.669067,,,
483,0,142.480103,-98.232887,6.749615,50.939651,-38.331219,62.846237,92.688629,-150.030899,10.164207,5.971496,9.816092,56.969364,-16.144152,34.550522,36.651211,,,
484,0,142.479477,-98.254242,6.565629,50.965675,-38.249477,62.605164,92.671379,-150.071121,10.039804,6.023721,9.824783,56.948326,-16.099606,34.559433,36.655201,,,
485,0,142.489731,-98.210442,6.424398,51.097031,-38.324654,62.628799,92.667892,-149.986786,9.899536,6.055224,9.839498,56.915062,-16.060987,34.598766,36.613705,,,
486,0,142.429245,-98.217117,6.225745,51.170006,-38.286491,62.590675,92.716621,-150.009048,9.830173,6.187181,9.663684,56.894470,-16.004778,34.647999,36.604275,,,
487,0,142.428848,-98.229042,6.082335,51.196163,-38.278709,62.530285,92.676979,-149.970352,9.670767,6.166526,9.695036,56.889454,-16.182224,34.524601,36.524506,,,
488,0,142.383682,-98.228935,5.977817,51.191154,-38.356682,62.473824,92.673920,-149.992371,9.638422,6.181966,9.784646,56.855392,-16.171291,34.499348,36.517441,,,
489,0,142.352341,-98.231483,5.876463,51.172787,-38.364037,62.465984,92.659874,-149.996445,9.581733,6.334641,10.037248,56.815697,-16.163868,34.518871,36.476864,,,
490,0,142.288147,-98.195518,5.766315,51.184795,-38.336132,62.446415,92.662224,-150.068619,9.499062,7.018742,10.339125,56.848228,-16.036213,34.690010,36.505398,,,
491,0,142.707504,-98.236183,5.884271,51.203938,-38.329147,62.415855,92.646904,-150.047729,9.472983,6.193222,10.349268,56.547684,-15.915146,34.576485,36.602081,,,
492,0,142.821228,-98.222504,5.908394,51.304131,-38.355026,62.405495,92.630569,-150.037292,9.457269,6.191412,10.191393,56.380219,-15.876660,34.545692,36.645508,,,
493,0,142.195236,-98.198166,5.514636,51.333073,-38.310440,62.358402,92.802689,-150.124054,9.397060,6.214938,10.261780,56.284473,-15.805058,34.461102,36.662827,,,
494,0,142.163452,-98.202370,5.390534,51.355923,-38.292282,62.323006,92.816696,-150.107498,9.383018,6.212128,10.273072,56.253094,-15.677827,34.478233,36.732273,,,
495,0,142.148880,-98.193764,5.313870,51.224506,-38.485821,62.096951,92.711136,-150.057327,9.321910,6.371518,10.107112,56.560696,-15.716685,34.865604,36.553772,,,
496,0,142.137589,-98.165504,5.185606,51.010788,-38.376804,61.882389,92.681709,-150.023544,9.189451,6.384561,10.123075,56.525845,-15.562658,35.249146,36.485909,,,
497,0,142.111435,-98.169716,5.108169,51.022720,-38.298122,61.847321,92.861633,-149.845917,9.081974,6.337524,10.183752,56.462765,-15.554955,34.642544,36.469517,,,
498,0,142.133087,-98.212563,5.002112,50.929852,-38.387749,61.925529,92.997231,-149.745117,9.001782,6.508344,10.186316,56.509098,-15.735684,34.795898,36.458050,,,
499,0,142.090591,-98.217415,4.929116,50.786560,-38.388542,61.775764,93.281197,-149.870087,8.895743,6.553844,10.209537,56.502373,-15.693387,34.807728,36.479527,,,
500,0,142.063461,-98.220978,4.852639,50.673443,-38.400002,61.611221,92.514656,-150.282532,9.259809,6.519928,10.194479,56.494629,-15.722947,34.782505,36.462769,,,
501,0,142.046906,-98.235764,4.778050,50.620205,-38.481224,61.531006,92.567352,-150.265610,9.309924,6.525636,10.196305,56.488964,-15.715322,34.807407,36.462151,,,
502,0,142.006927,-98.252457,4.733083,50.576099,-38.573433,61.530754,92.567543,-150.319504,9.201725,6.528431,10.195820,56.499752,-15.719199,34.772167,36.456303,,,
503,0,142.003311,-98.277122,4.633125,50.680840,-38.547756,61.562347,92.493645,-150.288239,9.107796,6.527048,10.185649,56.446117,-15.716899,34.761547,36.428677,,,
504,0,141.995956,-98.272682,4.563705,50.719917,-38.497601,61.590382,92.494537,-150.282944,9.112516,6.553662,10.179137,56.483383,-15.758384,34.759823,36.388988,,,
505,0,141.975830,-98.287453,4.511084,50.770210,-38.456043,61.646572,92.620262,-150.356750,9.143422,6.515217,10.186745,56.471806,-15.817374,34.799042,36.282185,,,
506,0,141.947296,-98.302055,4.470749,50.811932,-38.456982,61.624329,92.695488,-150.489166,9.027064,6.811752,10.208955,56.524506,-15.864201,34.834854,36.169964,,,
507,0,141.944809,-98.329552,4.396358,50.781189,-38.445576,61.582550,92.568703,-150.421707,8.990483,6.880166,9.852615,56.784882,-15.887337,34.875484,36.087372,,,
508,0,141.908981,-98.366402,4.364713,50.805969,-38.460697,61.565262,92.304619,-150.385742,8.981735,6.925427,9.985086,56.713196,-15.915646,34.898445,36.060310,,,
509,0,141.890335,-98.375046,4.281733,50.743061,-38.490395,61.529945,92.303970,-150.389618,8.978274,6.862741,10.149356,56.584091,-15.552925,34.725052,36.371326,,,
510,0,141.853104,-98.384377,4.248564,50.705341,-38.543072,61.488663,92.305115,-150.382767,8.984385,6.837425,10.224279,56.540726,-15.569959,34.714081,36.394638,,,
511,0,141.818192,-98.394585,4.192714,50.707493,-38.535770,61.469585,92.357964,-150.419373,8.926678,6.863010,10.235571,56.547955,-15.530106,34.720734,36.379025,,,
512,0,141.858902,-98.533501,4.280347,50.686577,-38.545536,61.442101,92.358086,-150.418640,8.927331,6.913699,10.194735,56.533043,-15.515192,34.731266,36.336342,,,
513,0,141.833618,-98.533745,4.221035,50.692955,-38.569984,61.435760,92.293182,-150.542572,8.934759,6.926725,10.204638,56.542583,-15.522023,34.721630,36.340839,,,
514,0,141.794693,-98.544106,4.136148,50.694641,-38.585613,61.399921,92.473511,-150.643173,8.916680,6.930381,10.186207,56.581219,-15.541253,34.719444,36.321121,,,
515,0,141.760803,-98.539619,4.108943,50.717934,-38.571278,61.417870,92.346458,-150.577255,8.878716,6.962199,10.169727,56.583385,-15.725665,34.679996,36.547726,,,
516,0,141.778229,-98.550140,4.068696,50.685799,-38.626602,61.395435,92.209496,-150.603714,8.911260,6.927832,10.139490,56.549576,-15.750434,34.712254,36.470982,,,
517,0,141.761200,-98.616493,3.993608,50.697750,-38.675728,61.357906,92.300316,-150.955261,8.877226,6.948397,10.128376,56.555744,-15.763592,34.728123,36.414570,,,
518,0,141.741058,-98.627251,3.911771,50.698536,-38.726238,61.315968,92.401695,-150.882324,8.814857,7.025841,10.102953,56.563255,-15.592003,34.438267,36.408165,,,
519,0,141.734039,-98.626610,3.830676,50.701965,-38.721344,61.308483,92.370369,-150.782913,8.841576,7.011659,10.117196,56.534279,-15.625242,34.505547,36.404743,,,
520,0,141.708984,-98.696785,3.772583,50.721657,-38.706776,61.276535,92.253181,-150.736847,8.752022,7.036294,10.129558,56.530479,-15.668001,34.620586,36.385830,,,
521,0,141.675858,-98.722633,3.706003,50.690212,-38.739285,61.226883,92.101967,-150.743729,8.624592,7.032869,10.097859,56.502621,-15.675586,34.707787,36.369305,,,
522,0,141.680939,-98.749184,3.679022,50.664391,-38.767570,61.156036,92.197044,-150.742172,8.630503,6.802310,9.992432,56.438782,-15.668217,34.764408,36.387463,,,
523,0,141.639648,-98.816620,3.598719,50.686668,-38.771793,61.134861,92.139084,-150.721436,8.645958,7.062254,10.117170,56.498676,-15.648745,34.778076,36.395592,,,
524,0,141.611633,-98.833336,3.604638,50.663967,-38.824760,61.112343,92.234901,-150.779999,8.549197,6.753144,9.966115,56.384357,-15.638908,34.766125,36.409985,,,
525,0,141.579193,-98.896782,3.579529,50.604870,-38.869350,61.091343,92.154381,-150.746384,8.529310,6.715693,9.942075,56.341122,-15.630386,34.699780,36.426968,,,
526,0,141.547501,-98.914101,3.535949,50.553085,-38.924301,61.058277,92.190460,-150.946213,8.535311,6.734813,9.906232,56.340191,-15.653323,34.745308,36.455711,,,
527,0,141.520386,-98.957031,3.528530,50.545040,-38.937450,61.030693,92.145447,-150.979370,8.507239,6.775477,9.942068,56.324696,-15.622999,34.780590,36.473869,,,
528,0,141.532928,-98.973198,3.485219,50.520580,-38.965797,60.991821,91.942780,-150.935684,8.521830,6.858267,10.032515,56.347950,-15.617742,34.781063,36.492748,,,
529,0,141.498917,-98.970779,3.370722,50.526215,-38.956696,60.932487,91.861511,-150.999207,8.469053,6.925705,10.040545,56.347237,-15.654536,34.816479,36.498734,,,
530,0,141.457886,-98.972939,3.323539,50.551617,-38.944122,60.920353,91.918655,-150.964157,8.417266,6.948713,10.088729,56.365982,-15.665734,34.822491,36.542671,,,
531,0,141.457840,-98.980553,3.289418,50.602760,-38.880447,60.987331,91.796509,-150.822296,8.459283,7.023798,10.128506,56.403091,-15.751168,34.880016,36.648102,,,
532,0,141.456512,-98.959335,3.255057,50.619701,-38.835926,60.965954,91.956612,-150.825562,8.420135,7.110552,10.184778,56.431961,-15.311859,34.807083,36.357559,,,
533,0,141.414856,-98.985512,3.236132,50.659126,-38.815769,60.986813,91.673096,-150.863800,8.328533,7.192928,10.246102,56.439487,-15.303428,34.829128,36.395878,,,
534,0,141.381943,-98.975151,3.181832,50.657505,-38.815376,60.975807,91.788895,-150.895874,8.373513,7.248360,10.339905,56.416996,-15.528890,34.887127,36.575024,,,
535,0,141.367035,-98.959129,3.109339,50.693314,-38.785496,60.999146,91.695465,-150.744949,8.230845,7.285977,10.371898,56.428238,-15.294234,34.866528,36.414085,,,
536,0,141.352020,-98.955154,3.051371,50.698265,-38.787884,60.996246,91.438446,-150.697281,8.188341,7.266446,10.367362,56.414204,-15.285089,34.754105,36.589512,,,
537,0,141.311249,-98.949615,2.989211,50.673435,-38.789284,60.919216,91.543114,-150.867783,8.261743,7.252505,10.357362,56.408306,-15.361110,34.830040,36.574814,,,
538,0,141.269012,-98.978378,2.917677,50.682129,-38.803360,60.924793,91.544197,-150.755753,8.345594,7.223969,10.327003,56.394485,-15.400012,34.966175,36.407024,,,
539,0,141.251740,-99.004623,2.920945,50.627689,-38.840244,60.931702,91.553856,-150.791077,8.422753,7.250942,10.241926,56.581955,-15.456954,34.980110,36.421337,,,
540,0,141.236725,-99.049004,2.915818,50.589329,-38.847061,60.915348,91.330460,-150.796829,8.440372,7.115228,10.143872,56.589638,-15.539804,34.946289,36.467487,,,
541,0,141.267395,-99.082756,2.934855,50.609470,-38.854805,60.919975,91.561935,-150.877533,8.522532,7.064095,10.143198,56.540619,-15.565341,34.920471,36.564857,,,
542,0,141.256699,-99.170578,2.928842,50.616261,-38.904449,60.911816,91.524612,-150.981277,8.566139,7.025437,10.131311,56.470490,-15.624715,34.913414,36.585701,,,
543,0,141.248657,-99.225243,2.892638,50.603600,-38.945278,60.920033,91.546661,-151.005814,8.487898,7.027763,10.117994,56.428509,-15.638258,34.911404,36.596058,,,
544,0,141.211899,-99.247169,2.879547,50.579594,-38.990601,60.901749,91.418159,-151.063126,8.519968,7.023110,10.084966,56.447399,-15.614412,34.899612,36.589043,,,
545,0,141.213287,-99.301605,2.870247,50.617912,-38.960640,60.913673,91.432098,-151.183762,8.524298,7.002765,10.065040,56.466877,-15.512218,34.830650,36.497135,,,
546,0,141.178345,-99.313812,2.825564,50.584656,-38.995232,60.910152,91.037453,-151.099930,8.433814,7.021111,10.037193,56.443336,-15.471847,34.858761,36.461464,,,
547,0,141.187256,-99.349419,2.789915,50.573944,-39.030239,60.857471,91.124580,-151.105347,8.445920,6.988984,9.995630,56.424992,-15.474460,34.828186,36.413872,,,
548,0,141.152908,-99.366417,2.773349,50.490280,-39.109344,60.806866,91.116676,-151.102844,8.335299,6.979708,9.907875,56.370430,-15.512463,34.815029,36.397095,,,
549,0,141.133347,-99.422539,2.760109,50.469604,-39.156063,60.745682,91.026337,-151.092056,8.325809,6.974035,9.897733,56.375103,-15.500347,34.838558,36.393497,,,
550,0,141.146927,-99.396591,2.722719,50.452042,-39.187523,60.729485,90.994919,-151.128357,8.355356,6.939026,9.897898,56.359241,-15.432301,34.904537,36.370476,,,
551,0,141.105453,-99.447777,2.665216,50.438419,-39.203075,60.693428,91.063087,-151.155289,8.328342,6.972361,9.929845,56.348911,-15.397956,34.970535,36.333832,,,
552,0,141.124817,-99.431229,2.652050,50.480770,-39.155365,60.675819,91.006500,-151.204025,8.235749,6.947201,9.942387,56.308834,-15.286333,35.015198,36.294571,,,
553,0,141.116638,-99.428879,2.621758,50.502083,-39.197571,60.688339,91.027328,-151.229599,8.264361,6.953782,9.908430,56.313412,-15.213803,34.994438,36.410648,,,
554,0,141.101440,-99.431427,2.618028,50.496128,-39.144482,60.690083,91.161835,-151.242737,8.343987,6.962038,9.917619,56.346909,-15.324586,35.027569,36.397831,,,
555,0,141.115967,-99.451538,2.615101,50.495022,-39.173435,60.685856,91.239922,-151.218307,8.279362,6.952638,9.915545,56.347687,-15.419670,35.006714,36.340046,,,
556,0,141.076569,-99.431488,2.595518,50.468067,-39.191418,60.664505,91.051567,-151.229446,8.274454,6.976822,9.956930,56.322758,-15.658429,34.789619,36.371090,,,
557,0,141.059509,-99.409912,2.553877,50.499298,-39.143261,60.690506,91.235855,-151.179153,8.275963,7.001609,9.983675,56.357464,-15.620632,34.834084,36.414906,,,
558,0,141.035339,-99.423683,2.547535,50.519470,-39.131088,60.697948,91.382530,-151.265961,8.327783,7.003458,9.980435,56.352497,-15.617749,34.833466,36.422184,,,
559,0,141.036453,-99.422562,2.521101,50.580482,-39.091690,60.699989,91.294846,-151.223633,8.314925,7.014223,9.986060,56.352367,-15.629200,34.808865,36.411034,,,
560,0,141.032425,-99.398987,2.499537,50.579189,-39.087734,60.679249,91.173347,-151.194946,8.303323,7.022562,9.973909,56.363377,-15.634656,34.785522,36.421871,,,
561,0,141.047180,-99.444878,2.491080,50.561058,-39.149097,60.636623,91.297737,-151.226807,8.312801,7.030886,9.945795,56.327854,-15.664259,34.754704,36.408188,,,
562,0,141.061401,-99.360497,2.464818,50.540874,-39.144161,60.615662,91.185638,-151.213562,8.242578,7.049598,9.913030,56.319992,-15.661601,34.758682,36.404709,,,
563,0,141.064728,-99.363968,2.445726,50.582333,-39.154938,60.590160,91.288353,-151.190643,8.239914,7.041774,9.928233,56.311260,-15.633536,34.806126,36.417973,,,
564,0,141.079010,-99.423943,2.417675,50.584957,-39.177124,60.604282,91.250595,-151.141815,8.333635,7.042499,9.952752,56.322327,-15.644650,34.774204,36.407681,,,
565,0,141.076370,-99.414795,2.399579,50.613586,-39.169624,60.621006,91.300262,-151.265015,8.316891,7.082235,9.970881,56.343132,-15.616445,34.794788,36.411129,,,
566,0,141.094727,-99.447701,2.414678,50.559071,-39.184227,60.604904,91.487701,-151.198471,8.375855,7.078735,9.944847,56.327194,-15.637722,34.767921,36.427105,,,
567,0,141.068619,-99.380051,2.377719,50.589336,-39.143291,60.597702,91.383865,-151.196655,8.299332,7.099443,9.958602,56.329231,-15.630986,34.790432,36.406441,,,
568,0,141.067947,-99.378181,2.377761,50.555321,-39.198959,60.580975,91.412468,-151.145493,8.341348,7.141848,10.010207,56.352219,-15.623396,34.801247,36.423187,,,
569,0,141.070297,-99.361214,2.379491,50.606804,-39.115765,60.615456,91.365646,-151.007278,8.330584,7.146725,10.016402,56.354103,-15.599937,34.853428,36.433971,,,
570,0,141.065796,-99.355362,2.370811,50.589985,-39.169262,60.586128,91.484833,-151.096008,8.406815,7.151571,10.037402,56.322754,-15.611292,34.848434,36.420021,,,
571,0,141.067795,-99.351677,2.341682,50.602989,-39.162411,60.588654,91.432922,-151.093414,8.370611,7.163950,10.052978,56.333542,-15.614297,34.813847,36.418144,,,
572,0,141.064438,-99.354958,2.324249,50.592632,-39.166508,60.584625,91.447533,-151.068619,8.408760,7.176463,10.057701,56.373428,-15.588241,34.842525,36.434849,,,
573,0,141.064377,-99.356758,2.323094,50.615803,-39.132050,60.586212,91.501686,-151.155853,8.349291,7.160289,10.018995,56.354542,-15.590092,34.817730,36.457912,,,
574,0,141.080627,-99.334839,2.298784,50.623009,-39.128639,60.588314,91.566025,-151.239929,8.389700,7.146068,10.026146,56.309807,-15.615119,34.819618,36.416721,,,
575,0,141.063309,-99.334633,2.294285,50.592632,-39.145279,60.556194,91.409119,-151.142609,8.343730,7.151921,10.021365,56.317856,-15.626184,34.813866,36.396801,,,
576,0,141.052078,-99.337196,2.245878,50.527451,-39.168724,60.534389,91.409210,-151.107422,8.338593,7.141699,10.016212,56.325043,-15.627052,34.812687,36.397472,,,
577,0,141.052017,-99.393410,2.265414,50.531494,-39.175804,60.518116,91.445702,-151.051941,8.432259,7.143118,10.017801,56.330513,-15.638689,34.809120,36.408813,,,
578,0,141.036667,-99.352577,2.260925,50.525078,-39.178452,60.515282,91.442039,-151.126312,8.345609,7.148473,10.021383,56.316986,-15.638266,34.810345,36.402184,,,
579,0,141.015320,-99.379089,2.221422,50.492973,-39.193916,60.508575,91.466476,-151.189346,8.271791,7.164372,10.037856,56.324188,-15.629435,34.813515,36.391071,,,
580,0,140.983078,-99.351303,2.249943,50.514458,-39.181332,60.534317,91.152542,-151.050278,8.324277,7.210083,10.044686,56.357651,-15.598287,34.830124,36.431248,,,
581,0,140.993225,-99.350677,2.296274,50.522820,-39.180119,60.538151,91.286743,-151.009125,8.425577,7.211488,10.089971,56.354897,-15.587986,34.880054,36.437382,,,
582,0,141.026581,-99.374260,2.309777,50.533810,-39.151577,60.570019,91.311195,-151.211060,8.429048,7.197501,10.096332,56.354881,-15.599839,34.892170,36.441284,,,
583,0,141.010895,-99.353081,2.311916,50.506699,-39.167038,60.561562,91.119904,-151.168198,8.407760,7.189195,10.091857,56.341011,-15.631187,34.873070,36.433414,,,
584,0,141.011765,-99.354523,2.312337,50.512562,-39.196911,60.558678,91.237473,-151.175293,8.320761,7.199321,10.105521,56.361141,-15.603718,34.917713,36.447262,,,
585,0,141.010910,-99.352043,2.312128,50.565067,-39.106354,60.597134,91.230110,-151.123917,8.443332,7.196322,10.135164,56.382095,-15.600842,34.892620,36.447399,,,
586,0,141.009506,-99.339401,2.310776,50.548267,-39.112232,60.592045,91.391731,-151.067307,8.387553,7.199080,10.092206,56.367210,-15.619945,34.884579,36.450306,,,
587,0,141.025253,-99.292519,2.300717,50.535980,-39.131775,60.571114,91.415787,-151.005661,8.389280,7.198744,10.089982,56.363525,-15.598459,34.902180,36.457851,,,
588,0,141.042526,-99.303894,2.302316,50.536896,-39.158382,60.567352,91.501289,-151.075684,8.460757,7.195815,10.111492,56.339962,-15.602601,34.915802,36.451519,,,
589,0,141.024475,-99.328949,2.305674,50.530170,-39.116611,60.582481,91.444633,-151.068817,8.425761,7.193807,10.133759,56.341820,-15.615285,34.918961,36.456738,,,
590,0,141.024872,-99.329765,2.305899,50.575375,-39.088100,60.603542,91.436821,-150.994354,8.418984,7.203867,10.136214,56.340595,-15.603662,34.917995,36.460705,,,
591,0,141.042297,-99.312675,2.293024,50.530487,-39.130432,60.558819,91.282646,-151.075729,8.347822,7.185740,10.114969,56.313118,-15.637474,34.838978,36.410877,,,
592,0,141.027344,-99.339081,2.304353,50.514030,-39.168987,60.551258,91.271980,-150.996033,8.341311,7.178667,10.069088,56.306583,-15.653454,34.836155,36.407440,,,
593,0,141.062927,-99.314362,2.306288,50.475601,-39.196003,60.525497,91.267776,-150.956146,8.338607,7.173230,10.064135,56.308849,-15.633479,34.841702,36.409565,,,
594,0,141.044815,-99.338181,2.309715,50.458767,-39.175903,60.530174,91.175301,-151.060364,8.343833,7.168744,10.074096,56.314457,-15.655877,34.851822,36.418919,,,
595,0,141.043076,-99.330116,2.317758,50.458851,-39.174927,60.530296,91.281776,-151.074234,8.345079,7.178058,10.101882,56.310112,-15.653770,34.875168,36.411530,,,
596,0,141.064438,-99.311562,2.327008,50.494022,-39.147018,60.543610,91.315376,-151.076752,8.321127,7.194470,10.071072,56.309738,-15.653094,34.848804,36.389271,,,
597,0,141.080078,-99.299133,2.318150,50.532032,-39.160919,60.565552,91.342842,-151.095993,8.361031,7.190304,10.106947,56.322952,-15.633087,34.871677,36.428230,,,
598,0,141.093628,-99.295647,2.314398,50.523823,-39.112312,60.565559,91.310616,-151.035004,8.319261,7.196971,10.123567,56.360088,-15.634986,34.871578,36.427521,,,
599,0,141.089340,-99.259789,2.294641,50.554329,-39.099800,60.566952,91.519379,-151.080139,8.253214,7.209554,10.136127,56.358246,-15.637545,34.910069,36.437069,,,
600,0,141.095245,-99.260719,2.220638,50.571236,-39.076366,60.575455,91.466446,-151.077042,8.216784,7.208273,10.129553,56.350403,-15.631570,34.900780,36.455906,,,
601,0,141.093964,-99.240356,2.191154,50.635521,-39.061943,60.537041,91.506470,-151.010757,8.174907,7.223734,10.148089,56.348663,-15.609784,34.953983,36.451488,,,
602,0,141.082718,-99.225418,2.142443,50.607368,-39.067535,60.530869,91.410126,-150.925308,8.159588,7.196457,10.129457,56.332981,-15.609159,34.958115,36.452217,,,
603,0,141.058899,-99.242928,2.091758,50.604923,-39.049599,60.519058,91.290932,-151.001297,8.068241,7.200003,10.152205,56.333691,-15.635744,34.950890,36.437759,,,
604,0,141.040329,-99.230309,2.077634,50.612339,-39.075237,60.490723,91.437149,-151.027374,8.084992,7.207203,10.160342,56.338707,-15.635256,34.952553,36.457359,,,
605,0,141.002594,-99.235954,2.050896,50.567692,-39.105656,60.489082,91.281334,-151.062195,8.081880,7.192951,10.142457,56.318947,-15.627816,34.958080,36.453568,,,
606,0,140.983841,-99.276833,2.053313,50.554543,-39.129280,60.464703,91.455170,-150.956757,8.093998,7.190053,10.136421,56.313896,-15.612863,34.972725,36.431927,,,
607,0,140.984039,-99.302734,2.053122,50.577896,-39.147720,60.484394,91.379669,-151.065735,8.043587,7.187491,10.144489,56.319813,-15.622721,34.958843,36.450783,,,
608,0,140.950027,-99.321823,2.036436,50.550930,-39.152920,60.480061,91.309006,-150.879028,8.107306,7.186860,10.140045,56.305668,-15.613087,34.957500,36.459312,,,
609,0,140.965469,-99.363586,1.994972,50.524269,-39.183552,60.441467,91.301445,-151.025528,8.140547,7.229038,10.135417,56.305984,-15.606513,34.957417,36.451523,,,
610,0,140.940460,-99.370438,1.962089,50.527355,-39.180973,60.441418,91.354286,-150.932526,8.091499,7.233646,10.181020,56.300323,-15.596056,34.987183,36.445927,,,
611,0,140.940170,-99.378830,1.952241,50.547894,-39.148525,60.429405,91.273865,-150.942230,8.023527,7.240360,10.173718,56.280582,-15.600665,34.974216,36.434418,,,
612,0,140.950256,-99.382965,1.916674,50.539513,-39.152809,60.416801,91.280998,-150.978317,8.028913,7.253207,10.152774,56.291355,-15.586927,34.947109,36.431808,,,
613,0,140.926987,-99.388687,1.854965,50.548298,-39.153091,60.407612,91.287567,-151.018448,8.032098,7.281278,10.136949,56.295052,-15.579000,34.952019,36.429211,,,
614,0,140.940033,-99.419144,1.829834,50.607758,-39.152821,60.427895,91.248077,-150.935150,8.057493,7.278956,10.102410,56.257557,-15.595390,34.936668,36.415855,,,
615,0,140.915222,-99.448433,1.766867,50.634945,-39.144825,60.390282,91.232986,-150.962051,7.950783,7.281606,10.109950,56.239086,-15.582048,34.949913,36.404747,,,
616,0,140.909973,-99.474289,1.738138,50.663517,-39.155647,60.404217,91.215622,-150.829025,7.869733,7.318058,10.120445,56.259224,-15.578659,34.956085,36.413685,,,
617,0,140.922974,-99.429291,1.720776,50.649712,-39.130932,60.379318,91.162186,-150.964981,7.847329,7.325670,10.128812,56.268421,-15.552194,34.960682,36.426838,,,
618,0,140.903870,-99.470909,1.701305,50.624466,-39.157387,60.369289,91.345627,-151.081284,7.896044,7.334527,10.132566,56.274250,-15.572982,34.961411,36.412643,,,
619,0,140.895294,-99.479111,1.668628,50.631855,-39.153801,60.373314,91.328011,-150.960678,7.824753,7.321778,10.155537,56.273266,-15.537388,34.982632,36.435528,,,
620,0,140.879532,-99.478523,1.665826,50.634735,-39.139496,60.410034,91.408829,-151.104614,7.910654,7.310833,10.179977,56.295010,-15.535964,35.026470,36.447918,,,
621,0,140.877213,-99.450676,1.664011,50.637768,-39.119030,60.382130,91.478668,-151.010193,7.857810,7.351376,10.218174,56.298721,-15.530761,35.029778,36.448059,,,
622,0,140.842941,-99.473877,1.631579,50.646675,-39.067390,60.402790,91.352409,-151.072266,7.889011,7.372303,10.234311,56.295242,-15.522040,35.035206,36.444111,,,
623,0,140.817627,-99.430847,1.594281,50.614704,-39.078690,60.374153,90.203537,-150.841064,8.260701,7.363725,10.277104,56.273720,-15.511854,35.061905,36.416660,,,
624,0,140.813828,-99.435196,1.576519,50.611366,-39.106956,60.368164,90.126999,-150.835861,8.403908,7.357606,10.239205,56.269588,-15.549183,35.059483,36.431053,,,
625,0,140.813766,-99.467651,1.567708,50.606499,-39.110790,60.364979,91.147476,-150.865875,7.885136,7.346153,10.240496,56.274715,-15.541329,35.050961,36.443310,,,
626,0,140.825592,-99.470924,1.550341,50.675785,-39.091183,60.372635,91.042679,-150.819016,7.806621,7.349329,10.241625,56.255379,-15.545133,35.046825,36.455700,,,
627,0,140.823013,-99.487144,1.509872,50.610626,-39.131966,60.336239,91.155457,-150.735992,7.798742,7.365502,10.207330,56.260384,-15.539598,35.022919,36.436153,,,
628,0,140.802353,-99.474937,1.472766,50.638027,-39.156799,60.320911,91.383919,-150.619965,7.893940,7.363661,10.204164,56.261127,-15.534521,35.028839,36.439182,,,
629,0,140.796844,-99.491692,1.457820,50.609615,-39.132694,60.336926,90.984848,-150.579361,7.865114,7.350417,10.192583,56.253162,-15.550246,34.987667,36.424793,,,
630,0,140.794586,-99.492134,1.456711,50.636414,-39.141098,60.348450,91.071724,-150.757904,7.647681,7.356912,10.221057,56.264362,-15.542733,35.039932,36.425003,,,
631,0,140.788071,-99.511047,1.398778,50.643032,-39.141525,60.346905,91.123421,-150.804382,7.627624,7.364238,10.181868,56.261551,-15.541508,35.042385,36.427628,,,
632,0,140.753082,-99.495255,1.380998,50.680531,-39.145393,60.359188,91.228790,-150.842911,7.701992,7.377573,10.241221,56.239853,-15.523545,35.041271,36.455864,,,
633,0,140.749557,-99.462189,1.373761,50.650677,-39.158642,60.334255,91.257332,-150.872726,7.696639,7.374063,10.255298,56.265697,-15.530149,35.103271,36.456226,,,
634,0,140.748856,-99.469566,1.363934,50.630466,-39.167591,60.296242,91.273170,-150.851288,7.617614,7.382544,10.240155,56.233345,-15.521318,35.087391,36.457130,,,
635,0,140.776505,-99.443367,1.323581,50.663773,-39.140736,60.290234,91.204117,-150.824265,7.543823,7.396899,10.248708,56.239120,-15.511692,35.085415,36.437271,,,
636,0,140.779053,-99.443382,1.304878,50.637058,-39.148785,60.268219,91.167923,-150.888718,7.546270,7.397938,10.245838,56.233139,-15.563790,35.046764,36.416962,,,
637,0,140.754089,-99.429146,1.273168,50.644737,-39.157681,60.283699,91.372231,-150.896866,7.473605,7.399323,10.246984,56.230129,-15.553375,35.095490,36.420643,,,
638,0,140.749298,-99.441788,1.255162,50.652847,-39.165260,60.241722,91.152557,-150.823547,7.465226,7.389671,10.260955,56.224289,-15.557145,35.088894,36.402107,,,
639,0,140.746155,-99.440002,1.244912,50.623867,-39.184803,60.220955,91.189751,-150.848419,7.466459,7.392726,10.241185,56.225784,-15.563840,35.085243,36.406857,,,
640,0,140.738892,-99.425125,1.212731,50.584789,-39.211040,60.203632,91.254066,-150.805939,7.507459,7.396171,10.239177,56.221340,-15.578022,35.057571,36.409916,,,
641,0,140.760559,-99.425331,1.186868,50.632912,-39.202591,60.227909,91.410240,-150.934052,7.466169,7.386824,10.256368,56.226444,-15.559869,35.073517,36.421482,,,
642,0,140.756317,-99.442299,1.205257,50.599957,-39.226536,60.221561,91.552979,-150.944077,7.494267,7.421501,10.243436,56.228657,-15.534704,35.097107,36.430111,,,
643,0,140.758774,-99.425270,1.206530,50.581047,-39.198517,60.207657,91.394180,-150.899765,7.458508,7.412801,10.261384,56.232018,-15.559110,35.088902,36.428387,,,
644,0,140.755524,-99.436417,1.213783,50.621429,-39.182827,60.238323,91.338997,-150.828094,7.487049,7.402515,10.236723,56.228661,-15.541422,35.047768,36.435314,,,
645,0,140.779144,-99.436241,1.189782,50.606644,-39.181835,60.254292,91.359428,-150.809402,7.486330,7.421029,10.244856,56.233513,-15.525597,35.066814,36.460274,,,
646,0,140.794174,-99.436180,1.193625,50.642208,-39.151218,60.259865,91.388527,-150.866898,7.452828,7.421773,10.219916,56.236580,-15.532141,35.060627,36.449646,,,
647,0,140.790634,-99.436020,1.212335,50.641235,-39.133121,60.254082,91.241150,-150.766281,7.407592,7.409679,10.257558,56.245411,-15.532894,35.059525,36.437580,,,
648,0,140.774094,-99.422523,1.210599,50.655933,-39.097980,60.298656,91.270470,-150.728516,7.582823,7.427894,10.270704,56.253498,-15.537443,35.092274,36.433723,,,
649,0,140.757065,-99.420441,1.179632,50.612442,-39.115967,60.263596,91.212204,-150.768921,7.541625,7.446696,10.278461,56.256367,-15.506576,35.110092,36.456371,,,
650,0,140.731339,-99.419685,1.155427,50.664288,-39.105320,60.303741,91.212074,-150.761459,7.547342,7.453631,10.330402,56.270592,-15.487238,35.141201,36.481331,,,
651,0,140.725128,-99.437897,1.126734,50.678970,-39.124405,60.269527,91.339317,-150.710236,7.541516,7.461005,10.312937,56.276123,-15.340472,35.266624,36.444538,,,
652,0,140.700729,-99.427666,1.072576,50.736542,-39.107208,60.255360,91.260231,-150.772568,7.466096,7.477138,10.323199,56.250816,-15.304907,35.252399,36.509251,,,
653,0,140.684418,-99.434692,1.031177,50.727127,-39.122498,60.257423,91.230003,-150.798782,7.445545,7.481795,10.282393,56.260376,-15.256149,35.156063,36.635113,,,
654,0,140.662399,-99.503120,1.036228,50.684677,-39.151772,60.205124,91.183823,-150.857407,7.327034,7.444584,10.262593,56.243702,-15.284536,35.080795,36.668137,,,
655,0,140.552414,-99.543610,0.941535,50.688641,-39.197308,60.187244,91.120995,-150.892792,7.178028,7.446898,10.231049,56.220966,-15.379900,35.169846,36.452839,,,
656,0,140.494827,-99.546692,0.838021,50.671581,-39.230583,60.160580,91.002243,-150.975204,7.080543,7.439034,10.197903,56.196579,-15.346928,35.119152,36.509129,,,
657,0,140.491592,-99.601906,0.831443,50.681194,-39.266888,60.128441,90.928535,-151.040894,7.143693,7.427592,10.197588,56.175522,-15.335203,35.104729,36.460060,,,
658,0,140.489136,-99.657486,0.823468,50.706825,-39.253269,60.117451,90.975746,-151.148117,7.180264,7.413269,10.178830,56.143715,-15.347672,35.094368,36.457680,,,
659,0,140.429733,-99.569107,0.633827,50.649239,-39.319893,60.155819,91.145897,-151.120453,7.148950,7.357885,10.106312,56.201595,-15.342731,35.034760,36.469093,,,
660,0,140.513977,-99.645729,0.797236,51.041924,-39.329067,60.452812,90.886513,-151.108017,7.185424,7.556324,10.156955,56.186726,-15.315184,34.921879,36.457680,,,
661,0,140.506439,-99.782211,0.854506,51.402943,-39.205952,60.404583,91.119537,-151.195786,7.298361,7.605968,10.247995,56.141121,-15.310263,34.819740,36.462822,,,
662,0,140.472763,-99.791962,0.845581,51.302223,-39.189327,60.385578,90.813759,-151.154739,7.226995,7.598286,10.288259,56.084465,-15.341817,34.730171,36.422596,,,
663,0,140.446335,-99.811218,0.833439,51.281620,-39.206230,60.360474,90.739296,-151.205948,7.154147,7.572741,10.204538,56.152168,-15.392445,35.062469,36.393974,,,
664,0,140.428848,-99.836823,0.835081,51.283947,-39.225304,60.387333,90.796234,-151.209442,7.262165,7.524866,10.153898,56.192787,-15.384292,35.080425,36.376343,,,
665,0,140.415695,-99.873230,0.834709,51.299152,-39.244385,60.398495,90.314850,-151.117737,7.549733,7.531492,10.150174,56.192883,-15.393132,35.074776,36.401089,,,
666,0,140.408508,-99.874344,0.831519,51.279060,-39.259644,60.374462,88.274567,-151.269333,8.169425,7.530210,10.150257,56.193542,-15.396142,35.090359,36.373791,,,
667,0,140.413452,-99.881310,0.824005,51.284466,-39.259563,60.370380,86.281532,-151.536072,8.695251,7.535003,10.150990,56.187847,-15.403391,35.065910,36.396114,,,
668,0,140.398483,-99.888748,0.821741,51.104069,-39.145187,60.136372,90.875511,-151.963760,7.207387,7.533517,10.117746,56.182720,-15.460293,35.134106,36.199295,,,
669,0,140.423218,-99.879456,0.826204,50.788387,-39.269409,60.125851,90.784668,-151.902817,7.166355,7.544796,10.091010,56.179977,-15.213522,35.164799,36.252560,,,
670,0,140.409958,-99.885590,0.824332,50.699047,-39.311428,60.104549,90.655815,-151.857239,7.118986,7.464360,9.970646,56.194710,-15.414253,35.074188,36.390491,,,
671,0,140.436722,-99.876541,0.839727,50.629044,-39.359531,60.100929,90.567017,-151.796555,7.088885,7.402504,10.111750,56.125580,-15.437111,35.061977,36.392830,,,
672,0,140.451675,-99.893288,0.879937,50.544975,-39.396980,60.074089,90.466377,-151.761627,7.083598,7.400316,10.112090,56.122364,-15.432940,35.057476,36.414734,,,
673,0,140.468399,-99.892136,0.885445,50.474018,-39.417450,60.054539,90.367538,-151.708786,7.043610,7.401881,10.108966,56.144390,-15.454939,35.044632,36.399918,,,
674,0,140.469070,-99.890900,0.935019,50.375011,-39.456707,60.009262,90.252647,-151.655899,7.047687,7.399728,10.107678,56.136955,-15.460736,35.045521,36.393250,,,
675,0,140.487350,-99.881760,0.938154,50.344215,-39.427814,60.031052,90.155357,-151.595078,7.005325,7.361642,10.097747,56.127182,-15.466048,35.076248,36.401924,,,
676,0,140.491394,-99.836632,0.973985,50.211018,-39.509766,60.003605,90.043808,-151.498276,6.995661,7.082780,9.965627,56.000153,-15.464633,35.077053,36.412987,,,
677,0,140.494324,-99.783241,0.991737,50.660805,-39.248585,60.256882,89.931145,-151.393173,6.967916,7.265573,10.072360,56.115425,-15.376194,35.132053,36.411392,,,
678,0,140.493958,-99.777725,1.033854,50.633469,-39.232147,60.250324,89.815208,-151.336014,6.964537,7.334212,10.155639,56.149902,-15.579947,35.020370,36.380745,,,
679,0,140.518036,-99.756882,1.057797,50.610500,-39.242439,60.240818,89.723701,-151.263474,6.942982,7.329206,10.160656,56.148853,-15.578986,35.025650,36.377693,,,
680,0,140.553162,-99.702065,1.059590,50.590282,-39.227722,60.207603,89.643265,-151.157043,6.899280,7.325154,10.164816,56.135052,-15.585018,35.038170,36.372097,,,
681,0,140.538544,-99.671486,1.072850,50.546227,-39.226704,60.193855,89.513062,-151.074783,6.867043,7.318332,10.163496,56.147686,-15.589660,35.066860,36.381798,,,
682,0,140.556808,-99.662903,1.075864,50.561714,-39.241104,60.206680,89.415741,-151.014526,6.824561,7.313151,10.173436,56.143349,-15.590412,35.048340,36.379604,,,
683,0,140.561920,-99.649452,1.095803,50.575954,-39.330719,60.237499,89.305290,-150.949387,6.799005,7.308511,10.188208,56.165524,-15.576224,35.166195,36.387756,,,
684,0,140.564087,-99.633614,1.114935,50.721710,-39.522850,60.358360,89.191864,-150.881882,6.772640,7.299618,10.178485,56.167221,-15.594793,34.836189,36.414707,,,
685,0,140.601685,-99.636627,1.121778,50.681103,-39.166924,60.318745,89.113869,-150.833237,6.733985,7.280557,10.191345,56.175983,-15.594698,35.089905,36.391823,,,
686,0,140.611816,-99.647202,1.171158,50.652203,-39.183273,60.317711,89.008446,-150.792114,6.737871,7.279817,10.191759,56.178143,-15.602731,35.078560,36.398106,,,
687,0,140.590347,-99.653671,1.186929,50.664806,-39.190811,60.357395,88.871399,-150.746918,6.708144,7.278016,10.192005,56.180527,-15.600751,35.078346,36.399918,,,
688,0,140.579178,-99.651497,1.205373,50.671219,-39.176155,60.380478,88.744644,-150.693069,6.681093,7.236452,10.377750,56.136871,-15.598693,35.082554,36.405704,,,
689,0,140.569870,-99.639603,1.221082,50.670395,-39.126041,60.385910,88.619751,-150.629501,6.651305,7.239937,10.077141,56.151047,-15.598172,35.116413,36.396233,,,
690,0,140.569473,-99.633003,1.229770,50.655163,-39.161488,60.389599,88.503777,-150.571243,6.614496,7.275117,10.191696,56.178295,-15.601391,35.118351,36.398083,,,
691,0,140.555756,-99.653687,1.245573,50.665939,-39.123680,60.392117,88.374481,-150.540237,6.584803,7.277328,10.222656,56.180309,-15.598069,35.118530,36.401306,,,
692,0,140.555405,-99.652817,1.245788,50.660099,-39.128010,60.390320,89.543205,-150.770004,7.043638,7.264904,10.208284,56.184628,-15.610449,35.126297,36.394928,,,
693,0,140.555176,-99.653702,1.245503,50.633316,-39.147163,60.384712,90.712051,-151.001526,7.501972,7.286204,10.209424,56.192989,-15.585317,35.102608,36.400227,,,
694,0,140.536606,-99.676666,1.248433,50.634624,-39.143196,60.379414,90.606110,-150.984238,7.507398,7.270296,10.199871,56.188526,-15.581032,35.103863,36.401375,,,
695,0,140.522202,-99.680176,1.185876,50.660305,-39.152153,60.386452,90.659218,-151.018967,7.451424,7.257733,10.179195,56.169106,-15.577815,35.108719,36.402580,,,
696,0,140.524963,-99.685005,1.197906,50.679886,-39.165150,60.388298,89.187347,-150.990692,7.002959,7.243733,10.165051,56.164200,-15.416443,35.338604,36.393082,,,
697,0,140.568344,-99.720856,1.210745,50.622425,-39.212936,60.341366,89.532272,-150.984253,7.021086,7.241519,10.162522,56.161873,-15.473695,35.266121,36.389332,,,
698,0,140.543686,-99.768562,1.194537,50.633987,-39.212009,60.341114,90.014923,-150.901764,6.992093,7.246821,10.137577,56.158974,-15.547716,35.155064,36.394222,,,
699,0,140.547012,-99.775703,1.206186,50.628727,-39.211449,60.343948,90.189926,-150.862854,7.021748,7.243101,10.120434,56.144402,-15.581023,35.063385,36.410595,,,
700,0,140.549973,-99.777786,1.214164,50.642162,-39.189007,60.372795,90.505119,-150.918594,7.102611,7.246272,10.123797,56.147362,-15.612375,35.012772,36.410973,,,
701,0,140.533127,-99.779816,1.208284,50.591755,-39.235249,60.325886,90.507553,-150.921677,7.199818,7.243596,10.119127,56.138954,-15.619020,35.009068,36.401237,,,
702,0,140.555161,-99.796379,1.223975,50.603672,-39.216274,60.351574,90.584625,-150.907379,7.304715,7.236162,10.115396,56.144547,-15.611032,35.013271,36.422810,,,
703,0,140.536499,-99.802925,1.220478,50.614231,-39.217209,60.368488,90.668190,-150.987534,7.238947,7.237343,10.116967,56.148045,-15.611842,35.009148,36.427166,,,
704,0,140.541138,-99.800117,1.238799,50.617619,-39.210091,60.383373,90.619072,-150.923401,7.332274,7.241659,10.118097,56.145008,-15.612571,35.010479,36.429832,,,
705,0,140.543335,-99.811974,1.289199,50.587063,-39.220722,60.373657,90.489708,-150.795929,7.202608,7.233017,10.114747,56.162682,-15.345396,35.181068,36.508896,,,
706,0,140.525208,-99.864555,1.291155,50.586452,-39.215656,60.397449,90.305298,-150.734573,7.049442,7.322081,10.312950,56.159626,-15.631527,34.985012,36.440315,,,
707,0,140.526993,-99.840714,1.297258,50.575420,-39.248573,60.403812,89.859947,-150.652298,6.870660,7.306185,10.296251,56.145748,-15.649498,34.991249,36.423656,,,
708,0,140.551788,-99.847336,1.276833,50.596962,-39.215946,60.380901,89.827782,-150.665604,6.921803,7.257620,10.247154,56.138557,-15.634425,34.976097,36.421032,,,
709,0,140.529312,-99.866486,1.271279,50.586491,-39.226330,60.371178,89.998711,-150.649689,6.834829,7.250667,10.201580,56.152229,-15.632544,35.001987,36.413952,,,
710,0,140.538284,-99.833862,1.250825,50.595154,-39.228249,60.394482,90.753922,-151.136124,7.509780,7.242192,10.221786,56.150986,-15.630737,35.003426,36.435436,,,
711,0,140.528381,-99.874306,1.261229,50.616623,-39.219307,60.375683,90.741791,-151.178146,7.528016,7.245605,10.220102,56.128204,-15.612205,35.010654,36.439816,,,
712,0,140.541779,-99.836525,1.230000,50.614700,-39.224102,60.356026,90.752953,-151.141907,7.504618,7.244273,10.236986,56.100266,-15.594236,35.022964,36.433674,,,
713,0,140.567566,-99.872154,1.209891,50.596176,-39.232567,60.329906,90.858604,-151.161087,7.497374,7.278296,10.244286,56.092121,-15.575590,35.021652,36.442673,,,
714,0,140.552032,-99.872528,1.205974,50.607155,-39.211960,60.355267,90.752632,-151.143814,7.502914,7.281202,10.228580,56.107925,-15.587493,34.994682,36.459843,,,
715,0,140.569473,-99.854195,1.222942,50.595856,-39.228172,60.367188,90.626755,-151.071213,7.470968,7.282723,10.203490,56.132545,-15.595558,34.999916,36.437111,,,
716,0,140.554550,-99.881592,1.233349,50.631260,-39.194145,60.370365,90.626778,-151.071091,7.471085,7.261135,10.203607,56.141769,-15.600779,34.998707,36.428539,,,
717,0,140.590149,-99.870209,1.232202,50.632404,-39.202507,60.390293,90.626869,-151.070511,7.471597,7.249032,10.164526,56.145557,-15.596404,35.000805,36.433750,,,
718,0,140.588837,-99.900116,1.222069,50.652805,-39.196400,60.392441,90.752113,-151.201401,7.391487,7.268091,10.222304,56.074898,-15.595111,34.998337,36.432709,,,
719,0,140.570587,-99.918190,1.213712,50.655880,-39.191982,60.392982,90.753670,-151.137619,7.508449,7.227373,10.289009,56.003662,-15.575253,35.020050,36.431007,,,
720,0,140.574921,-99.896652,1.247315,50.647903,-39.190197,60.395607,90.879044,-151.216400,7.535264,7.243053,10.311631,56.006809,-15.587585,35.007904,36.434769,,,
721,0,140.594101,-99.872177,1.241347,50.637875,-39.197906,60.391800,90.879181,-151.215637,7.535946,7.257118,10.343186,56.003803,-15.603263,34.991505,36.424812,,,
722,0,140.576797,-99.847412,1.237212,50.652615,-39.200207,60.395187,90.933624,-151.188080,7.595483,7.279498,10.162709,56.174984,-15.322663,35.168205,36.504974,,,
723,0,140.552765,-99.857376,1.202641,50.665062,-39.195000,60.400784,90.879181,-151.215637,7.535946,7.271533,10.174402,56.173374,-15.333065,35.160378,36.486748,,,
724,0,140.568100,-99.879356,1.200821,50.668793,-39.190037,60.398975,90.827049,-151.228851,7.489163,7.256739,10.180670,56.176220,-15.320019,35.184345,36.518757,,,
725,0,140.563156,-99.859978,1.184544,50.659100,-39.195339,60.398018,90.753471,-151.138748,7.507441,7.261645,10.163819,56.169094,-15.328074,35.174454,36.503559,,,
