Trajectories
100
,,sano:Uln,,,sano:MPH3,,,sano:Rad,,,sano:PIP3,,,sano:DIP3,,,sano:DIP4,,,
Frame,Sub Frame,X,Y,Z,X,Y,Z,X,Y,Z,X,Y,Z,X,Y,Z,X,Y,Z
,,mm,mm,mm,mm,mm,mm,mm,mm,mm,mm,mm,mm,mm,mm,mm,mm,mm,mm
1,0,140.018051,-80.285240,6.430511,39.307732,-21.404177,57.312000,89.323059,-130.852631,9.220467,-7.102873,22.975542,53.909958,-32.287193,47.918114,36.573330,,,
2,0,140.031296,-80.293098,6.402438,39.307732,-21.404177,57.312000,89.170334,-130.834732,9.279755,-7.092699,22.985655,53.939079,-32.295151,47.909328,36.572651,,,
3,0,140.019165,-80.313553,6.408775,39.307770,-21.404129,57.312019,89.200951,-130.781097,9.248367,-7.118017,22.956459,53.934452,-32.325768,47.850456,36.558750,,,
4,0,139.997009,-80.309967,6.410459,39.298714,-21.406416,57.311909,89.084946,-130.792435,9.309031,-7.122611,22.965908,53.921337,-32.303841,47.875813,36.562057,,,
5,0,140.004349,-80.372971,6.425753,39.290619,-21.407768,57.309326,89.226303,-130.827682,9.238342,-7.127043,22.969181,53.926785,-32.294746,47.887348,36.565723,,,
6,0,139.997223,-80.354324,6.401589,39.288963,-21.435081,57.300858,89.136284,-130.892944,9.214782,-7.131639,22.968521,53.924053,-32.287090,47.890797,36.567436,,,
7,0,140.035797,-80.322472,6.401949,39.281227,-21.436438,57.298756,89.225990,-130.898788,9.199386,-7.157381,22.961756,53.919857,-32.288292,47.910130,36.570473,,,
8,0,139.997330,-80.354576,6.401677,39.238659,-21.451687,57.291866,89.133820,-130.850769,9.175485,-7.148674,22.929985,53.925953,-32.296467,47.908978,36.572670,,,
9,0,139.962204,-80.318565,6.401572,39.239735,-21.435820,57.302273,89.057571,-130.786575,9.190986,-7.139108,22.971191,53.923450,-32.273972,47.914822,36.591572,,,
10,0,139.962143,-80.319031,6.401486,39.233162,-21.437132,57.300713,89.072952,-130.882645,9.186475,-7.137222,22.984446,53.908665,-32.280746,47.908882,36.593235,,,
11,0,139.981979,-80.295387,6.398833,39.238358,-21.412619,57.282391,89.195999,-130.906448,9.165919,-7.152589,22.979668,53.875309,-32.289623,47.909496,36.568245,,,
12,0,139.981125,-80.318268,6.392803,39.231838,-21.413364,57.280228,89.217010,-130.924133,9.205768,-7.165283,22.964920,53.880039,-32.295048,47.896912,36.584732,,,
13,0,139.958847,-80.314934,6.393659,39.226646,-21.412056,57.284298,89.294510,-130.919189,9.250719,-7.148976,22.966751,53.904903,-32.313972,47.883728,36.584126,,,
14,0,139.985046,-80.277542,6.412333,39.212563,-21.437815,57.288441,89.196510,-130.940964,9.206083,-7.161018,22.972712,53.906853,-32.270866,47.922325,36.611164,,,
15,0,139.974289,-80.296043,6.375055,39.210365,-21.438389,57.266346,89.277092,-130.981873,9.136983,-7.175810,22.989311,53.900620,-32.297100,47.900913,36.559807,,,
16,0,139.997787,-80.282570,6.394508,39.221539,-21.427267,57.260994,89.239067,-130.942078,9.187498,-7.172246,22.991188,53.881741,-32.308659,47.885498,36.548618,,,
17,0,140.009659,-80.269943,6.376335,39.218685,-21.415466,57.261600,89.138664,-130.930176,9.211705,-7.196805,22.990244,53.878830,-32.302162,47.901909,36.573277,,,
18,0,140.014465,-80.283012,6.399762,39.209892,-21.433880,57.269093,89.266891,-130.886658,9.210886,-7.184200,22.983162,53.887161,-32.288330,47.912727,36.558914,,,
19,0,140.013474,-80.282074,6.398661,39.219742,-21.422598,57.273293,89.244553,-130.917114,9.154446,-7.187416,22.993872,53.917297,-32.293518,47.894047,36.585186,,,
20,0,140.014175,-80.282394,6.399384,39.232460,-21.402660,57.268204,89.206596,-130.800323,9.194487,-7.200164,22.995535,53.885498,-32.297901,47.899883,36.561253,,,
21,0,140.011856,-80.278389,6.387694,39.212685,-21.432934,57.265900,89.121323,-130.800522,9.194843,-7.193523,22.988705,53.916718,-32.335697,47.867908,36.570908,,,
22,0,140.018631,-80.268677,6.420191,39.230522,-21.401646,57.286381,89.212364,-130.875732,9.168878,-7.191764,22.989616,53.921432,-32.313072,47.884792,36.595428,,,
23,0,140.037064,-80.250961,6.432818,39.222469,-21.395775,57.273064,89.223709,-130.855179,9.128223,-7.174091,22.992977,53.913513,-32.315765,47.872448,36.582764,,,
24,0,140.046036,-80.262413,6.406114,39.244846,-21.401876,57.287472,89.177353,-130.773941,9.175870,-7.165536,22.976515,53.924511,-32.325161,47.858418,36.597225,,,
25,0,140.067276,-80.241112,6.414455,39.241444,-21.412672,57.252441,89.302704,-130.895584,9.110248,-7.187141,22.968021,53.917873,-32.302612,47.873333,36.581699,,,
26,0,140.087265,-80.229424,6.408019,39.236839,-21.392159,57.286869,89.300980,-130.851669,9.092442,-7.191936,22.980646,53.923721,-32.326073,47.875011,36.588631,,,
27,0,140.093063,-80.215149,6.409235,39.247395,-21.395315,57.282021,89.327141,-130.873077,9.140694,-7.190269,22.968304,53.926052,-32.337742,47.848381,36.593689,,,
28,0,140.105652,-80.195793,6.402760,39.243172,-21.411602,57.291862,89.309067,-130.830368,9.164398,-7.181355,22.971428,53.915470,-32.344212,47.835945,36.592995,,,
29,0,140.117783,-80.191597,6.388776,39.239792,-21.405632,57.263222,89.450157,-130.862152,9.158632,-7.181435,22.968597,53.917622,-32.327793,47.857437,36.595852,,,
30,0,140.122284,-80.177567,6.409503,39.253490,-21.399559,57.265068,89.407936,-130.819321,9.148741,-7.170537,22.983219,53.921734,-32.307159,47.868942,36.607811,,,
31,0,140.118683,-80.167496,6.387267,39.255470,-21.422703,57.265274,89.231979,-130.704498,9.167546,-7.181392,22.981169,53.921700,-32.341663,47.850723,36.583984,,,
32,0,140.100891,-80.140350,6.389030,39.252373,-21.398073,57.255684,89.286545,-130.713715,9.133876,-7.171485,22.980078,53.921326,-32.331623,47.846001,36.586544,,,
33,0,140.112854,-80.180313,6.366678,39.250771,-21.419411,57.252609,89.212669,-130.785080,9.123585,-7.183094,22.967697,53.918324,-32.306362,47.873264,36.586586,,,
34,0,140.119339,-80.174393,6.378728,39.254307,-21.425117,57.276031,89.284737,-130.829178,9.106809,-7.162793,22.962940,53.930294,-32.307915,47.871349,36.586517,,,
35,0,140.093445,-80.197136,6.353286,39.237125,-21.449818,57.239223,89.287697,-130.805527,9.123553,-7.169107,22.967743,53.904366,-32.325073,47.850525,36.563587,,,
36,0,140.093170,-80.196175,6.352228,39.253105,-21.443766,57.267082,89.301628,-130.836792,9.126578,-7.186162,22.956528,53.916786,-32.298832,47.864723,36.568832,,,
37,0,140.061234,-80.213692,6.335974,39.271725,-21.439009,57.259270,89.277557,-130.891235,9.097281,-7.188494,22.956667,53.915607,-32.311050,47.886936,36.563541,,,
38,0,140.045044,-80.272964,6.360714,39.250843,-21.445379,57.269077,89.250259,-130.916107,9.102838,-7.184023,22.936352,53.914322,-32.304337,47.851830,36.576138,,,
39,0,140.028244,-80.249199,6.355055,39.228718,-21.430052,57.272713,89.251831,-130.887909,9.139800,-7.187124,22.945583,53.923519,-32.311176,47.850407,36.577221,,,
40,0,140.012680,-80.300468,6.358911,39.225204,-21.432011,57.259205,89.211555,-130.847626,9.101037,-7.170093,22.953688,53.912159,-32.334770,47.844982,36.570953,,,
41,0,140.012985,-80.302757,6.360022,39.204304,-21.446438,57.271389,89.159409,-130.862213,9.169814,-7.184488,22.960897,53.909992,-32.340363,47.844490,36.573303,,,
42,0,139.996933,-80.303398,6.355384,39.196354,-21.447342,57.248367,89.084274,-130.961960,9.174148,-7.160950,22.939026,53.919682,-32.314526,47.831619,36.551514,,,
43,0,139.998856,-80.303833,6.356661,39.245853,-21.425137,57.268539,89.165649,-130.933258,9.152988,-7.168006,22.936979,53.920513,-32.299633,47.857170,36.589191,,,
44,0,140.015488,-80.314041,6.357897,39.252075,-21.426485,57.256245,89.165321,-130.894821,9.159211,-7.147175,22.934561,53.911140,-32.304527,47.820881,36.580677,,,
45,0,140.011536,-80.310165,6.345579,39.234219,-21.466312,57.258129,89.040703,-130.886581,9.200476,-7.165299,22.944715,53.899967,-32.337906,47.849762,36.549435,,,
46,0,140.007675,-80.257202,6.351119,39.220989,-21.453276,57.248672,89.234886,-130.838531,9.140568,-7.178534,22.969612,53.904835,-32.327564,47.839436,36.549500,,,
47,0,140.031769,-80.267632,6.367520,39.233627,-21.436073,57.258125,89.169693,-130.965256,9.163985,-7.174181,22.951424,53.887386,-32.309963,47.847542,36.560425,,,
48,0,140.032928,-80.269348,6.373079,39.215240,-21.397781,57.263069,89.183487,-130.907547,9.134955,-7.171138,22.941883,53.893105,-32.317307,47.828327,36.543682,,,
49,0,140.053131,-80.258080,6.429166,39.213707,-21.430267,57.245510,89.277374,-130.847183,9.172247,-7.175153,22.966999,53.875256,-32.282070,47.867596,36.541489,,,
50,0,140.054993,-80.252007,6.440356,39.214302,-21.386717,57.257881,89.365318,-130.859497,9.175456,-7.163377,22.961298,53.892132,-32.289398,47.866135,36.545399,,,
51,0,140.089890,-80.242470,6.448442,39.244755,-21.368351,57.264549,89.249611,-130.904510,9.240030,-7.165486,22.958015,53.901039,-32.301174,47.830925,36.542442,,,
52,0,140.091385,-80.244904,6.454560,39.241253,-21.387100,57.267578,89.429764,-130.987442,9.217276,-7.179646,22.980806,53.881195,-32.290901,47.864647,36.542408,,,
53,0,140.094498,-80.242508,6.475387,39.242760,-21.386124,57.267399,89.377968,-130.949478,9.265689,-7.139887,22.959269,53.881702,-32.325195,47.852272,36.566936,,,
54,0,140.111908,-80.245079,6.486462,39.235306,-21.406397,57.268906,89.461296,-130.880936,9.283112,-7.176663,22.970081,53.910141,-32.301044,47.856766,36.559948,,,
55,0,140.114395,-80.248871,6.497950,39.255669,-21.393032,57.305088,89.366356,-130.921326,9.309439,-7.159778,22.970728,53.918346,-32.298107,47.863659,36.571678,,,
56,0,140.129440,-80.206177,6.530158,39.247437,-21.399967,57.298115,89.280678,-130.889664,9.273991,-7.181224,22.964277,53.909416,-32.306061,47.818104,36.570190,,,
57,0,140.110565,-80.177795,6.519967,39.251175,-21.393097,57.284084,89.305534,-130.852768,9.285194,-7.176717,22.966549,53.912724,-32.311401,47.864677,36.604164,,,
58,0,140.136017,-80.202866,6.549603,39.237518,-21.398075,57.273125,89.284775,-130.840302,9.241091,-7.185199,22.959915,53.913036,-32.302265,47.836220,36.590393,,,
59,0,140.148468,-80.187706,6.486528,39.234623,-21.405752,57.269413,89.291748,-130.856125,9.257690,-7.163187,22.945305,53.892506,-32.313366,47.824875,36.584595,,,
60,0,140.131256,-80.162392,6.489026,39.237286,-21.395231,57.272739,89.412239,-130.850113,9.224037,-7.179516,22.931435,53.890972,-32.286495,47.838577,36.572800,,,
61,0,140.145691,-80.182243,6.477648,39.265888,-21.438349,57.270412,89.393486,-130.880997,9.218634,-7.171244,22.910231,53.902870,-32.292797,47.821201,36.579338,,,
62,0,140.146210,-80.181404,6.478179,39.251297,-21.421423,57.267673,89.313942,-130.824600,9.256041,-7.174598,22.913000,53.908924,-32.298439,47.841419,36.599293,,,
63,0,140.076111,-80.205757,6.473183,39.256134,-21.426426,57.283329,89.308022,-130.845856,9.251733,-7.160273,22.923571,53.920841,-32.299671,47.871387,36.570053,,,
64,0,140.078461,-80.232361,6.475019,39.251404,-21.434454,57.287418,89.387192,-130.864105,9.203166,-7.173299,22.934162,53.895264,-32.322956,47.856934,36.569572,,,
65,0,140.081161,-80.235497,6.481101,39.251366,-21.427233,57.281433,89.345337,-130.855911,9.207843,-7.175533,22.937983,53.900448,-32.320774,47.854706,36.550598,,,
66,0,140.041641,-80.240578,6.485182,39.260277,-21.446476,57.287174,89.325134,-130.850586,9.182465,-7.185102,22.929033,53.917488,-32.304085,47.855442,36.574753,,,
67,0,140.050140,-80.256554,6.500430,39.242764,-21.412861,57.290394,89.254082,-130.843414,9.248619,-7.183384,22.930204,53.917923,-32.330772,47.828735,36.560684,,,
68,0,140.041824,-80.249573,6.505210,39.245716,-21.456806,57.287914,89.428978,-130.899704,9.213927,-7.184527,22.932634,53.907497,-32.315094,47.862679,36.575649,,,
69,0,140.039261,-80.239891,6.483456,39.222115,-21.486853,57.285194,89.320427,-130.904495,9.213919,-7.188045,22.927332,53.916634,-32.295567,47.860443,36.581417,,,
70,0,140.075363,-80.253738,6.502879,39.230179,-21.478834,57.291538,89.249344,-130.918182,9.198365,-7.190408,22.953386,53.902531,-32.303486,47.857807,36.561504,,,
71,0,140.078339,-80.264496,6.500371,39.237568,-21.446016,57.294781,89.279808,-130.924377,9.197367,-7.190691,22.945595,53.895714,-32.299011,47.864475,36.575237,,,
72,0,140.103409,-80.277290,6.497445,39.265385,-21.454647,57.287193,89.309425,-130.862244,9.228411,-7.196055,22.950199,53.891235,-32.299976,47.875477,36.562469,,,
73,0,140.101425,-80.275604,6.495656,39.225304,-21.482721,57.269344,89.426773,-130.990265,9.187906,-7.199732,22.947073,53.887093,-32.340878,47.783966,36.532803,,,
74,0,140.109177,-80.243118,6.535072,39.228271,-21.487358,57.288731,89.350708,-130.968735,9.206689,-7.204079,22.928860,53.912579,-32.292496,47.842953,36.569027,,,
75,0,140.112549,-80.268280,6.536503,39.239635,-21.449167,57.316326,89.359970,-130.952774,9.238302,-7.188122,22.932787,53.903488,-32.287052,47.853981,36.581905,,,
76,0,140.128464,-80.267807,6.541707,39.227467,-21.470907,57.327579,89.244049,-130.821655,9.279146,-7.190666,22.928429,53.917675,-32.310062,47.854649,36.603756,,,
77,0,140.128281,-80.267426,6.541750,39.198647,-21.443275,57.318161,89.342506,-130.856613,9.251637,-7.200424,22.921412,53.904011,-32.315891,47.886303,36.593777,,,
78,0,140.106262,-80.221840,6.517757,39.186745,-21.450684,57.314129,89.271042,-130.743607,9.268278,-7.184686,22.937410,53.921394,-32.316109,47.885136,36.596733,,,
79,0,140.093582,-80.233040,6.535432,39.218857,-21.484344,57.307255,89.347389,-130.843842,9.200716,-7.190748,22.931713,53.920670,-32.301991,47.849644,36.587158,,,
80,0,140.112152,-80.248215,6.547614,39.228218,-21.461111,57.279854,89.310425,-130.874359,9.233497,-7.189590,22.931351,53.920296,-32.302822,47.876480,36.605087,,,
81,0,140.113892,-80.249504,6.548827,39.209167,-21.452171,57.275196,89.304688,-130.888153,9.274803,-7.178697,22.922476,53.919018,-32.310879,47.849270,36.598724,,,
82,0,140.094635,-80.277145,6.534274,39.225559,-21.463581,57.286407,89.322350,-130.842453,9.186306,-7.184364,22.926472,53.900906,-32.294758,47.861835,36.572582,,,
83,0,140.101044,-80.280106,6.513123,39.238831,-21.446589,57.293549,89.315491,-130.867950,9.159482,-7.181755,22.913647,53.909859,-32.285854,47.865234,36.579033,,,
84,0,140.108704,-80.263489,6.534636,39.262726,-21.461378,57.275478,89.232597,-130.872833,9.227459,-7.179929,22.921921,53.916981,-32.282410,47.878025,36.571209,,,
85,0,140.110611,-80.263649,6.535654,39.261307,-21.453539,57.275478,89.268005,-130.916504,9.181045,-7.186639,22.914751,53.916245,-32.316513,47.864048,36.584705,,,
86,0,140.100388,-80.275848,6.503601,39.247910,-21.475580,57.286572,89.263138,-130.810318,9.206117,-7.188800,22.940454,53.909969,-32.310406,47.843426,36.570705,,,
87,0,140.098282,-80.274567,6.501648,39.274845,-21.437050,57.283100,89.250954,-130.780273,9.204370,-7.195237,22.932211,53.910625,-32.292198,47.885208,36.589062,,,
88,0,140.098450,-80.274734,6.500987,39.255974,-21.424562,57.272408,89.324013,-130.866409,9.157246,-7.194976,22.933897,53.904621,-32.284973,47.866589,36.569298,,,
89,0,140.100342,-80.255669,6.503591,39.247887,-21.402073,57.264889,89.387283,-130.941956,9.092979,-7.192370,22.933241,53.904572,-32.285244,47.864948,36.585358,,,
90,0,140.107758,-80.238350,6.523769,39.224594,-21.438501,57.281498,89.300247,-130.840225,9.043058,-7.200201,22.934704,53.885181,-32.289379,47.872017,36.549709,,,
91,0,140.085129,-80.270195,6.513195,39.244736,-21.437626,57.292492,89.190498,-130.800598,9.145033,-7.194657,22.934795,53.892185,-32.285831,47.877815,36.556187,,,
92,0,140.122269,-80.266235,6.558787,39.226784,-21.440973,57.303112,89.220825,-130.857254,9.150010,-7.192964,22.933205,53.930759,-32.291336,47.857021,36.598282,,,
93,0,140.129868,-80.250549,6.579319,39.237331,-21.455406,57.311512,89.282829,-130.828049,9.149490,-7.174960,22.935032,53.935196,-32.316486,47.864532,36.600471,,,
94,0,140.130203,-80.251358,6.580638,39.240898,-21.457302,57.302040,89.204247,-130.801239,9.118749,-7.177207,22.937445,53.920616,-32.312107,47.850178,36.578167,,,
95,0,140.123047,-80.266701,6.560293,39.267017,-21.431322,57.294380,89.108345,-130.785858,9.135256,-7.164602,22.928608,53.912289,-32.321930,47.860764,36.578808,,,
96,0,140.138977,-80.275917,6.559333,39.264252,-21.408964,57.310402,89.271469,-130.791290,9.156737,-7.164495,22.971245,53.920509,-32.301640,47.848911,36.583797,,,
97,0,140.130081,-80.249954,6.578771,39.266304,-21.414600,57.308941,89.293747,-130.864044,9.142941,-7.185992,22.963425,53.918217,-32.288986,47.813145,36.598003,,,
98,0,140.129990,-80.249641,6.579324,39.274632,-21.399988,57.301796,89.395378,-130.884995,9.128519,-7.185638,22.946712,53.914562,-32.292400,47.844223,36.595692,,,
99,0,140.126495,-80.237015,6.575197,39.229546,-21.446289,57.296516,89.367775,-130.849838,9.103436,-7.194127,22.947697,53.912563,-32.302204,47.834492,36.566360,,,
100,0,140.126740,-80.237900,6.575695,39.261631,-21.414434,57.302242,89.407120,-130.881561,9.169878,-7.183958,22.931694,53.919617,-32.267956,47.862919,36.579124,,,
101,0,140.128235,-80.237923,6.576994,39.248230,-21.432270,57.294636,89.334137,-130.815063,9.121033,-7.179947,22.938448,53.931782,-32.323975,47.850002,36.594440,,,
102,0,140.146576,-80.238220,6.571990,39.240753,-21.430851,57.294788,89.293274,-130.774704,9.171635,-7.175786,22.947561,53.909237,-32.308346,47.840988,36.590290,,,
103,0,140.129410,-80.237953,6.556816,39.270432,-21.423351,57.312206,89.354416,-130.800369,9.198456,-7.162033,22.956556,53.899117,-32.309616,47.864292,36.582294,,,
104,0,140.131439,-80.239777,6.558828,39.253529,-21.426445,57.295990,89.329941,-130.877441,9.192787,-7.180689,22.942223,53.898285,-32.291824,47.853039,36.590912,,,
105,0,140.147324,-80.230858,6.580643,39.240616,-21.427423,57.297016,89.370323,-130.838196,9.226183,-7.182885,22.958593,53.897682,-32.294018,47.849129,36.591335,,,
106,0,140.162323,-80.230484,6.585525,39.250710,-21.415316,57.281467,89.311607,-130.832397,9.190632,-7.181827,22.934904,53.911476,-32.319111,47.831535,36.568760,,,
107,0,140.158752,-80.204407,6.583507,39.234264,-21.419769,57.290581,89.278725,-130.781845,9.205552,-7.176250,22.968773,53.892422,-32.304737,47.833824,36.546669,,,
108,0,140.152832,-80.218887,6.563356,39.239540,-21.427410,57.294853,89.264381,-130.788757,9.196937,-7.187202,22.969606,53.899754,-32.306271,47.834690,36.553619,,,
109,0,140.157471,-80.200272,6.576408,39.233028,-21.424366,57.291027,89.249519,-130.840851,9.166456,-7.183609,22.958981,53.907875,-32.295677,47.834473,36.550476,,,
110,0,140.151672,-80.242668,6.558496,39.240501,-21.424522,57.295815,89.339737,-130.842804,9.127522,-7.153569,22.925814,53.917240,-32.308228,47.834961,36.577515,,,
111,0,140.160782,-80.228996,6.583948,39.264538,-21.433605,57.298058,89.297096,-130.727524,9.191084,-7.162977,22.942513,53.897522,-32.337975,47.808262,36.575298,,,
112,0,140.156433,-80.216492,6.537177,39.256916,-21.427502,57.290478,89.205658,-130.741638,9.198099,-7.159400,22.946676,53.903919,-32.316902,47.822151,36.535118,,,
113,0,140.155579,-80.215904,6.536199,39.239956,-21.449909,57.299019,89.296776,-130.754761,9.162382,-7.165016,22.946140,53.897247,-32.292091,47.849079,36.555187,,,
114,0,140.173416,-80.164268,6.522867,39.238602,-21.416752,57.257298,89.324623,-130.775497,9.099629,-7.167995,22.930222,53.884457,-32.306858,47.837078,36.550293,,,
115,0,140.192612,-80.152412,6.525224,39.224396,-21.428947,57.266735,89.233665,-130.700195,9.143032,-7.162213,22.929134,53.881985,-32.317459,47.835396,36.545059,,,
116,0,140.174286,-80.161812,6.522189,39.261620,-21.419981,57.282875,89.226288,-130.684235,9.138955,-7.177577,22.965395,53.907787,-32.278744,47.853516,36.565872,,,
117,0,140.173264,-80.167290,6.511278,39.247387,-21.427141,57.279949,89.286964,-130.706467,9.182109,-7.170773,22.955334,53.924076,-32.304920,47.834660,36.569927,,,
118,0,140.156631,-80.169327,6.506771,39.249340,-21.424641,57.280628,89.315552,-130.822311,9.156288,-7.159888,22.945547,53.906704,-32.301983,47.848202,36.556515,,,
119,0,140.161835,-80.200783,6.521162,39.241985,-21.423931,57.272411,89.267860,-130.780823,9.154708,-7.182273,22.945799,53.882740,-32.302856,47.849880,36.529598,,,
120,0,140.163345,-80.207817,6.559858,39.228359,-21.445910,57.274338,89.246887,-130.788818,9.182252,-7.185420,22.925856,53.892399,-32.302376,47.853413,36.534084,,,
121,0,140.128647,-80.239120,6.577725,39.235107,-21.453083,57.287796,89.286125,-130.961136,9.164665,-7.184514,22.971424,53.904846,-32.324394,47.841862,36.548256,,,
122,0,140.133118,-80.243156,6.569551,39.215279,-21.459682,57.270206,89.272980,-130.947845,9.162952,-7.186072,22.946878,53.883869,-32.345009,47.795372,36.531685,,,
123,0,140.132172,-80.242775,6.589547,39.230312,-21.425205,57.291714,89.201218,-130.881958,9.274245,-7.193476,22.963316,53.907196,-32.304588,47.852974,36.549358,,,
124,0,140.131790,-80.236588,6.601988,39.209007,-21.403053,57.305630,89.413155,-130.929688,9.296232,-7.191637,22.971884,53.893223,-32.337269,47.831390,36.542858,,,
125,0,140.152191,-80.230858,6.607864,39.223110,-21.425426,57.289066,89.336349,-130.899002,9.304564,-7.195626,22.971029,53.903309,-32.301994,47.853378,36.548138,,,
126,0,140.171265,-80.233788,6.624491,39.246452,-21.429394,57.314037,89.272392,-130.826447,9.360510,-7.181646,22.946495,53.910748,-32.301598,47.832397,36.566246,,,
127,0,140.171265,-80.234322,6.624788,39.240601,-21.410372,57.305386,89.280136,-130.881134,9.349186,-7.181231,22.911823,53.896030,-32.318676,47.809036,36.571136,,,
128,0,140.191879,-80.220795,6.656684,39.248634,-21.433159,57.299858,89.408463,-130.867203,9.315482,-7.179309,22.902847,53.886097,-32.321022,47.804329,36.562153,,,
129,0,140.191544,-80.246445,6.677674,39.258221,-21.432383,57.298031,89.352859,-130.806686,9.360670,-7.174847,22.903549,53.887695,-32.315693,47.808712,36.593090,,,
130,0,140.227493,-80.225815,6.691703,39.236309,-21.455223,57.279903,89.469948,-130.966766,9.342458,-7.171257,22.876696,53.884335,-32.321705,47.799625,36.583817,,,
131,0,140.229095,-80.250153,6.663010,39.278061,-21.441414,57.290604,89.522774,-131.036423,9.295532,-7.170821,22.888348,53.891541,-32.293789,47.790405,36.549274,,,
132,0,140.223328,-80.238235,6.640603,39.252293,-21.457438,57.252502,89.580818,-131.093079,9.306341,-7.149758,22.890423,53.890736,-32.321579,47.765205,36.556747,,,
133,0,140.214172,-80.251053,6.613945,39.253994,-21.483461,57.263218,89.513557,-131.016769,9.326756,-7.163410,22.886137,53.888241,-32.298073,47.759274,36.535736,,,
134,0,140.209671,-80.287285,6.586428,39.239304,-21.503408,57.252010,89.455605,-130.895004,9.327346,-7.170018,22.883554,53.888313,-32.298504,47.763397,36.546646,,,
135,0,140.189758,-80.259209,6.582945,39.239285,-21.509766,57.261738,89.398674,-130.912460,9.283705,-7.158227,22.897902,53.896618,-32.304691,47.765301,36.555527,,,
136,0,140.193314,-80.235985,6.575196,39.235725,-21.501665,57.257824,89.327362,-130.818619,9.289259,-7.160495,22.894749,53.893356,-32.331791,47.762436,36.549572,,,
137,0,140.177399,-80.227135,6.575236,39.202236,-21.493031,57.255516,89.334328,-130.863815,9.272535,-7.163145,22.881411,53.925343,-32.341553,47.775848,36.550404,,,
138,0,140.186234,-80.209282,6.594977,39.184708,-21.493528,57.268951,89.345695,-130.918701,9.286159,-7.162387,22.928680,53.913704,-32.347443,47.802490,36.559250,,,
139,0,140.164703,-80.121239,6.585836,39.193073,-21.461227,57.284534,89.489182,-130.833023,9.250551,-7.176825,22.944904,53.935886,-32.331493,47.832596,36.565529,,,
140,0,140.165253,-80.122444,6.585911,39.178791,-21.411884,57.270252,89.266243,-130.891632,9.242064,-7.200587,22.975487,53.921364,-32.362885,47.849384,36.555012,,,
141,0,140.202057,-80.068504,6.590237,39.164917,-21.390152,57.288799,89.369377,-130.736694,9.280463,-7.209468,22.977114,53.943390,-32.357529,47.881805,36.587482,,,
142,0,140.200653,-80.049484,6.601175,39.167484,-21.382528,57.319248,89.498161,-130.821060,9.247698,-7.200739,22.996912,53.952736,-32.354706,47.875366,36.597614,,,
143,0,140.226166,-79.975632,6.655578,39.170200,-21.385571,57.328365,89.434944,-130.742661,9.270006,-7.184546,23.007462,53.968937,-32.379406,47.859909,36.601231,,,
144,0,140.267517,-79.995056,6.692553,39.175823,-21.355619,57.351170,89.521744,-130.732651,9.281453,-7.208075,23.003010,53.976650,-32.405891,47.872654,36.599823,,,
145,0,140.268921,-79.977509,6.732439,39.165405,-21.353106,57.346645,89.340393,-130.631668,9.341326,-7.206106,23.023201,53.968472,-32.409626,47.863487,36.603153,,,
146,0,140.251846,-79.934792,6.744902,39.188122,-21.342468,57.359364,89.617241,-130.677292,9.345196,-7.219615,23.047876,53.979008,-32.381405,47.894550,36.628025,,,
147,0,140.307205,-79.905502,6.760930,39.172531,-21.344862,57.340801,89.619469,-130.665787,9.442626,-7.204263,23.045797,53.992390,-32.384808,47.871395,36.598927,,,
148,0,140.315704,-79.895065,6.790133,39.204796,-21.329182,57.368198,89.660172,-130.635925,9.504809,-7.185329,23.040905,53.971138,-32.357746,47.901031,36.604996,,,
149,0,140.319244,-79.893600,6.835563,39.171638,-21.323378,57.364933,89.701736,-130.714783,9.445101,-7.185853,23.050755,53.966686,-32.345814,47.907368,36.602226,,,
150,0,140.360062,-79.895493,6.845588,39.212219,-21.331553,57.357162,89.696541,-130.617264,9.443161,-7.181442,23.051441,53.982220,-32.370434,47.893833,36.577602,,,
151,0,140.374069,-79.905861,6.865079,39.223278,-21.309895,57.352634,89.708549,-130.638657,9.469645,-7.182569,23.046616,53.985516,-32.379913,47.883766,36.599060,,,
152,0,140.339691,-79.934479,6.880904,39.210293,-21.359766,57.359550,89.704407,-130.683472,9.446202,-7.186203,23.016506,53.977470,-32.354168,47.873234,36.620739,,,
153,0,140.361237,-79.952431,6.896256,39.233929,-21.337557,57.370739,89.593094,-130.645187,9.532160,-7.164446,23.012455,53.972610,-32.348289,47.856388,36.600883,,,
154,0,140.379730,-80.001869,6.899860,39.223709,-21.352163,57.376301,89.604256,-130.672562,9.506899,-7.160158,23.003531,53.967049,-32.353069,47.826252,36.589321,,,
155,0,140.378006,-80.007652,6.889550,39.221844,-21.355452,57.359585,89.586609,-130.624481,9.571173,-7.159643,22.967072,53.945164,-32.345295,47.825901,36.596394,,,
156,0,140.325623,-80.045837,6.891886,39.206890,-21.373392,57.311756,89.554031,-130.692841,9.507994,-7.188279,22.967552,53.921669,-32.349693,47.813477,36.559067,,,
157,0,140.305176,-80.101532,6.858933,39.223206,-21.364065,57.300449,89.571472,-130.765488,9.427601,-7.176877,22.966400,53.912998,-32.347092,47.790627,36.561546,,,
158,0,140.327042,-80.096031,6.881355,39.222569,-21.425083,57.311020,89.425163,-130.688995,9.462174,-7.167887,22.930954,53.918339,-32.328312,47.812138,36.559425,,,
159,0,140.287308,-80.120125,6.850543,39.165081,-21.457178,57.322861,89.376953,-130.803558,9.459614,-7.171088,22.923691,53.921219,-32.354702,47.778248,36.543243,,,
160,0,140.283432,-80.201157,6.841501,39.200336,-21.445837,57.316101,89.556725,-130.856201,9.400675,-7.195736,22.939016,53.918205,-32.362064,47.805817,36.554783,,,
161,0,140.251877,-80.212296,6.836506,39.197472,-21.441702,57.307777,89.437325,-130.867142,9.392489,-7.170859,22.938503,53.906307,-32.364201,47.799110,36.560871,,,
162,0,140.259369,-80.220726,6.856947,39.185219,-21.458870,57.295021,89.491913,-130.923218,9.391779,-7.188591,22.931540,53.894382,-32.326435,47.816746,36.559444,,,
163,0,140.237289,-80.236046,6.844563,39.188343,-21.455942,57.298958,89.533447,-130.952316,9.359960,-7.184480,22.919533,53.896812,-32.318161,47.798195,36.582378,,,
164,0,140.217484,-80.262856,6.848936,39.189919,-21.452139,57.298271,89.523743,-131.012314,9.345144,-7.162267,22.931709,53.890465,-32.306953,47.799587,36.585888,,,
165,0,140.197922,-80.268906,6.843862,39.178562,-21.477051,57.332195,89.460579,-130.945709,9.363258,-7.177945,22.899963,53.901253,-32.314480,47.798485,36.553860,,,
166,0,140.201767,-80.278648,6.864741,39.193111,-21.503414,57.323448,89.315697,-130.861130,9.453362,-7.172771,22.891846,53.914146,-32.345749,47.800064,36.580353,,,
167,0,140.203354,-80.302933,6.856320,39.205559,-21.461245,57.323483,89.421318,-130.857376,9.413103,-7.178625,22.899176,53.897385,-32.319515,47.794674,36.560215,,,
168,0,140.199814,-80.278824,6.885440,39.205292,-21.458973,57.342484,89.285706,-130.881454,9.486150,-7.196342,22.909601,53.914780,-32.344841,47.785751,36.571972,,,
169,0,140.195511,-80.267662,6.863139,39.208542,-21.461077,57.338737,89.331314,-130.957184,9.438557,-7.194183,22.904430,53.923908,-32.341606,47.805073,36.569057,,,
170,0,140.199982,-80.266251,6.880352,39.183758,-21.464277,57.329372,89.389961,-130.911636,9.441493,-7.196391,22.898985,53.902874,-32.337822,47.797264,36.547935,,,
171,0,140.225250,-80.269714,6.886734,39.186207,-21.468010,57.312283,89.296562,-130.956497,9.492129,-7.207013,22.923223,53.907253,-32.334869,47.789299,36.558926,,,
172,0,140.228180,-80.295837,6.887974,39.182972,-21.469849,57.301548,89.413902,-130.879196,9.470618,-7.222944,22.923824,53.914467,-32.332024,47.798386,36.555229,,,
173,0,140.235657,-80.249977,6.923903,39.152809,-21.469637,57.298725,89.283569,-130.924789,9.492144,-7.234922,22.898876,53.914692,-32.349438,47.749020,36.555141,,,
174,0,140.235672,-80.252190,6.954329,39.157928,-21.502558,57.319931,89.425476,-130.890533,9.498887,-7.215745,22.914364,53.916302,-32.352360,47.796326,36.569843,,,
175,0,140.232498,-80.236122,6.942614,39.141994,-21.454800,57.331421,89.311241,-130.959274,9.495243,-7.241810,22.933624,53.903522,-32.360474,47.802868,36.538040,,,
176,0,140.258713,-80.189102,6.966653,39.125359,-21.432194,57.327797,89.351837,-130.888824,9.481455,-7.232766,22.960802,53.892315,-32.349899,47.815914,36.535301,,,
177,0,140.240677,-80.152130,6.965217,39.146862,-21.452770,57.328842,89.506325,-130.911789,9.433399,-7.244069,22.930279,53.903969,-32.370525,47.808197,36.543587,,,
178,0,140.255051,-80.151398,6.968524,39.138340,-21.431587,57.341995,89.498283,-130.900833,9.513023,-7.243339,22.951303,53.911942,-32.360764,47.816811,36.537701,,,
179,0,140.254776,-80.142960,6.975623,39.184311,-21.448660,57.360497,89.568245,-130.901352,9.544274,-7.242859,22.952553,53.941353,-32.355423,47.830765,36.584965,,,
180,0,140.278381,-80.119957,7.002661,39.138439,-21.430054,57.338188,89.570122,-130.865173,9.519838,-7.242324,22.943537,53.952133,-32.348431,47.857254,36.585262,,,
181,0,140.272903,-80.134949,6.979891,39.150127,-21.419722,57.326935,89.550148,-130.928925,9.511619,-7.228881,22.940258,53.944176,-32.356205,47.875977,36.564747,,,
182,0,140.279343,-80.121742,7.004125,39.138504,-21.428619,57.323372,89.584717,-130.852753,9.492446,-7.212353,22.944746,53.938686,-32.330734,47.837090,36.601620,,,
183,0,140.274750,-80.135956,6.982389,39.165066,-21.397804,57.342926,89.595787,-130.838089,9.575462,-7.216047,22.963682,53.944336,-32.328136,47.836849,36.567585,,,
184,0,140.277069,-80.137779,6.962824,39.156197,-21.426058,57.355415,89.592545,-130.876740,9.557029,-7.216505,22.943478,53.944885,-32.321690,47.815395,36.603973,,,
185,0,140.273972,-80.135742,6.981588,39.156887,-21.427504,57.354389,89.629402,-130.856384,9.510479,-7.213675,22.944895,53.941719,-32.344986,47.832386,36.587639,,,
186,0,140.274017,-80.136589,6.981653,39.132587,-21.419357,57.357834,89.563751,-130.864273,9.579035,-7.231621,22.960674,53.948910,-32.333870,47.815891,36.585854,,,
187,0,140.272552,-80.135506,6.980453,39.128540,-21.411884,57.373688,89.526016,-130.907150,9.523642,-7.244082,22.938932,53.944218,-32.348972,47.822338,36.583626,,,
188,0,140.272141,-80.142204,6.970783,39.160347,-21.461035,57.349724,89.586739,-130.808624,9.565473,-7.199546,22.926912,53.920284,-32.353077,47.819073,36.556332,,,
189,0,140.268784,-80.137848,6.962460,39.155136,-21.450006,57.323776,89.530899,-130.823639,9.559140,-7.219659,22.939447,53.928913,-32.368797,47.800716,36.563461,,,
190,0,140.280167,-80.178246,6.938944,39.124802,-21.422663,57.325706,89.581825,-130.885574,9.471604,-7.211411,22.968607,53.919720,-32.356716,47.814930,36.562191,,,
191,0,140.300568,-80.169006,6.950534,39.116001,-21.438831,57.315823,89.596672,-130.884003,9.476851,-7.234268,22.946262,53.919186,-32.369438,47.802475,36.531239,,,
192,0,140.283859,-80.137123,6.915190,39.133102,-21.442240,57.303963,89.522545,-130.871582,9.491572,-7.218609,22.945742,53.917660,-32.371098,47.794769,36.544346,,,
193,0,140.273315,-80.148689,6.862679,39.134174,-21.446112,57.289894,89.429245,-130.803314,9.509497,-7.225581,22.944263,53.901413,-32.363457,47.810551,36.536972,,,
194,0,140.270966,-80.146095,6.855365,39.123486,-21.458918,57.287411,89.359634,-130.782486,9.396179,-7.207536,22.931265,53.879501,-32.370968,47.792744,36.520470,,,
195,0,140.263672,-80.137329,6.838036,39.130352,-21.451891,57.270164,89.357941,-130.780762,9.371521,-7.201795,22.927633,53.870789,-32.363686,47.820644,36.512482,,,
196,0,140.231079,-80.146187,6.805936,39.160038,-21.463140,57.308170,89.395744,-130.787003,9.447948,-7.193266,22.920624,53.900108,-32.372021,47.792198,36.532898,,,
197,0,140.247818,-80.181610,6.802005,39.153461,-21.479441,57.289257,89.467812,-130.817490,9.408169,-7.185616,22.896883,53.921421,-32.353207,47.792713,36.530079,,,
198,0,140.228088,-80.160187,6.789529,39.153049,-21.479258,57.257702,89.459129,-130.840790,9.421062,-7.219237,22.899378,53.883789,-32.392502,47.749985,36.541996,,,
199,0,140.204681,-80.160240,6.751227,39.154652,-21.484842,57.240681,89.331757,-130.830261,9.409107,-7.222496,22.923882,53.881580,-32.364025,47.800621,36.535564,,,
200,0,140.207184,-80.183151,6.757401,39.186138,-21.495558,57.278721,89.348984,-130.873947,9.405030,-7.206141,22.931671,53.933407,-32.314434,47.811733,36.534229,,,
201,0,140.210495,-80.237907,6.764102,39.165077,-21.451546,57.294235,89.531723,-130.890778,9.421046,-7.190610,22.918434,53.922329,-32.334351,47.821175,36.559746,,,
202,0,140.196823,-80.233284,6.771046,39.169601,-21.452755,57.290867,89.522095,-130.939270,9.443766,-7.192183,22.949923,53.937115,-32.321774,47.841183,36.551178,,,
203,0,140.193146,-80.235504,6.753065,39.176140,-21.452904,57.308380,89.375771,-130.975418,9.460586,-7.179637,22.941456,53.926174,-32.364124,47.801285,36.548767,,,
204,0,140.191116,-80.235023,6.751528,39.157227,-21.470276,57.295246,89.273201,-130.943497,9.426494,-7.204382,22.924322,53.938663,-32.353077,47.801380,36.572308,,,
205,0,140.183823,-80.220070,6.718034,39.180729,-21.477592,57.291748,89.410385,-130.859375,9.451497,-7.197386,22.926689,53.955299,-32.346458,47.803352,36.598385,,,
206,0,140.180267,-80.191452,6.711177,39.171181,-21.469151,57.272259,89.343643,-130.936096,9.476668,-7.183700,22.932093,53.937038,-32.348846,47.807465,36.588745,,,
207,0,140.180695,-80.223907,6.702628,39.178398,-21.451521,57.277256,89.423012,-130.916779,9.351154,-7.200389,22.940737,53.912373,-32.333729,47.826092,36.547703,,,
208,0,140.180069,-80.226395,6.703558,39.185944,-21.459986,57.290615,89.297752,-130.895645,9.329250,-7.191572,22.922256,53.929272,-32.344337,47.796680,36.569248,,,
209,0,140.181122,-80.225761,6.703698,39.139389,-21.478270,57.265415,89.352135,-130.909424,9.309717,-7.192722,22.901051,53.935734,-32.374878,47.775616,36.561546,,,
210,0,140.196442,-80.224258,6.708059,39.141895,-21.488945,57.275883,89.381813,-130.833618,9.310699,-7.217341,22.918732,53.931171,-32.371239,47.810177,36.571579,,,
211,0,140.181351,-80.217896,6.665588,39.151588,-21.502348,57.237450,89.274384,-130.854614,9.316289,-7.200227,22.896172,53.921700,-32.339485,47.801533,36.566273,,,
212,0,140.184967,-80.226707,6.685803,39.142010,-21.502207,57.245548,89.386200,-130.869843,9.333415,-7.219468,22.895634,53.930725,-32.379738,47.780575,36.558220,,,
213,0,140.179581,-80.214485,6.683778,39.136677,-21.505714,57.261253,89.353600,-130.911606,9.308335,-7.222455,22.919922,53.924145,-32.376476,47.775276,36.566402,,,
214,0,140.163361,-80.232010,6.699859,39.123650,-21.534445,57.233944,89.330124,-130.961548,9.333472,-7.227373,22.898104,53.916161,-32.377831,47.786037,36.577587,,,
215,0,140.133316,-80.214417,6.612522,39.132195,-21.515928,57.223873,89.320320,-130.925308,9.324894,-7.220090,22.901173,53.897972,-32.376476,47.785774,36.542377,,,
216,0,140.134399,-80.271912,6.652548,39.147038,-21.495281,57.235626,89.312279,-130.984329,9.303925,-7.200496,22.895136,53.900665,-32.362099,47.802032,36.556503,,,
217,0,140.112228,-80.263741,6.627285,39.113537,-21.529984,57.261776,89.137817,-130.883026,9.320865,-7.207889,22.895044,53.910419,-32.361233,47.804157,36.558720,,,
218,0,140.118927,-80.277023,6.654854,39.114674,-21.552586,57.252739,89.212677,-130.977417,9.262063,-7.231279,22.881845,53.895336,-32.383930,47.784119,36.548805,,,
219,0,140.139679,-80.282005,6.653378,39.101643,-21.575533,57.250031,89.201378,-130.881348,9.286661,-7.225955,22.845837,53.916180,-32.357956,47.749069,36.558949,,,
220,0,140.120514,-80.278770,6.641615,39.139824,-21.589960,57.262993,89.257530,-130.824524,9.225927,-7.225513,22.845985,53.892899,-32.375370,47.721733,36.535461,,,
221,0,140.136078,-80.254807,6.615784,39.138943,-21.587814,57.233677,89.167572,-130.887283,9.216797,-7.224120,22.833059,53.893551,-32.384903,47.724300,36.549328,,,
222,0,140.152283,-80.254570,6.621132,39.106663,-21.602953,57.203384,89.083328,-130.947021,9.237473,-7.230413,22.809443,53.901661,-32.374569,47.702755,36.557636,,,
223,0,140.151627,-80.286018,6.609839,39.134762,-21.605984,57.244457,89.099609,-130.933517,9.189857,-7.221389,22.803453,53.907307,-32.378063,47.699795,36.552940,,,
224,0,140.161667,-80.273262,6.574898,39.103371,-21.630184,57.213230,89.287971,-130.968887,9.086337,-7.225367,22.812157,53.885704,-32.383335,47.706802,36.520332,,,
225,0,140.123032,-80.340172,6.565837,39.095589,-21.641062,57.179199,89.155739,-130.962769,9.174748,-7.222256,22.808863,53.876366,-32.381020,47.712891,36.523842,,,
226,0,140.122955,-80.340973,6.566411,39.101097,-21.632666,57.210560,89.217613,-130.989120,9.107401,-7.232185,22.803427,53.887840,-32.384167,47.723179,36.555462,,,
227,0,140.113754,-80.355659,6.594514,39.054493,-21.684006,57.188232,89.118164,-131.022934,9.044566,-7.263999,22.770157,53.873947,-32.421947,47.669750,36.514534,,,
228,0,140.109985,-80.374855,6.581628,39.058662,-21.681425,57.192802,88.990372,-130.999863,9.102759,-7.261736,22.775768,53.887779,-32.419769,47.681664,36.549313,,,
229,0,140.098282,-80.364944,6.596824,39.034351,-21.706963,57.203785,89.100624,-131.055115,9.118288,-7.265580,22.774672,53.883911,-32.415154,47.687702,36.542812,,,
230,0,140.048279,-80.302635,6.632610,39.055519,-21.658461,57.197201,89.171906,-131.000381,9.138166,-7.285873,22.777683,53.870506,-32.447826,47.690704,36.541916,,,
231,0,140.055496,-80.310112,6.695469,39.025631,-21.655071,57.243469,89.076523,-131.002045,9.183825,-7.301620,22.809872,53.867516,-32.416454,47.729351,36.555801,,,
232,0,140.083298,-80.283325,6.844856,39.040848,-21.627604,57.285294,89.198784,-131.010681,9.268807,-7.276537,22.808771,53.905094,-32.419758,47.751553,36.579330,,,
233,0,140.128265,-80.246201,6.992965,38.988953,-21.576418,57.285839,89.181664,-131.040329,9.314681,-7.331207,22.820614,53.878380,-32.441517,47.755852,36.567593,,,
234,0,140.160538,-80.174034,7.196151,38.962116,-21.496210,57.321190,89.287369,-130.951035,9.447470,-7.348876,22.891169,53.894852,-32.473598,47.819649,36.584610,,,
235,0,140.183716,-80.063736,7.449854,38.947952,-21.410719,57.392368,89.398712,-130.972885,9.678071,-7.357832,22.935947,53.926834,-32.487999,47.863834,36.584278,,,
236,0,140.335388,-79.892830,7.821922,38.918209,-21.329990,57.477657,89.664742,-130.839554,9.929712,-7.330575,23.052610,53.962425,-32.479042,47.972759,36.600349,,,
237,0,140.387680,-79.699966,8.223175,38.906460,-21.172712,57.605007,89.915115,-130.806564,10.185872,-7.350605,23.143414,53.981186,-32.525051,48.051090,36.608730,,,
238,0,140.473770,-79.515701,8.867402,38.872650,-21.009178,57.801121,90.238075,-130.637024,10.711667,-7.416821,23.232174,54.034134,-32.548214,48.154716,36.655674,,,
239,0,140.420654,-79.369690,9.620542,38.837093,-20.715635,58.092667,90.304176,-130.520798,11.426916,-7.421955,23.464989,54.124229,-32.564034,48.329464,36.690353,,,
240,0,140.683197,-79.077927,10.949768,38.878910,-20.282948,58.572044,90.331848,-130.328140,12.493382,-7.366552,23.756792,54.261986,-32.532776,48.586876,36.772018,,,
241,0,141.010666,-78.797752,12.876899,38.982822,-19.700861,59.294590,91.327988,-130.287949,13.686942,-7.291821,24.244118,54.492577,-32.459660,48.920547,36.825233,,,
242,0,141.811676,-78.236977,15.382800,39.047810,-18.906862,60.351974,91.560310,-129.559814,16.005680,-7.257976,24.731882,54.769100,-32.475819,49.213409,36.834629,,,
243,0,142.528381,-77.520027,18.179638,39.146072,-17.898905,61.776146,92.871841,-129.302780,18.531773,-7.224987,25.490168,55.234589,-32.412148,49.602703,36.918442,,,
244,0,143.191254,-76.354843,21.191437,39.358894,-16.631018,63.759388,93.779694,-128.708771,21.893282,-7.013213,26.569887,55.951504,-32.035614,50.224621,37.045757,,,
245,0,143.890427,-74.832123,24.379532,39.697674,-15.215956,66.347267,94.483177,-127.551704,25.800879,-6.756246,27.938364,57.135586,-31.500917,51.037582,37.500008,,,
246,0,144.521545,-73.009331,27.660780,40.023598,-13.502306,69.575005,95.137207,-125.975388,30.037125,-6.381059,29.379829,59.209637,-30.932627,52.075195,39.011002,,,
247,0,144.748840,-70.995720,30.817230,40.598495,-11.786635,73.501114,95.560158,-124.233559,34.880444,-5.776868,31.026405,62.654903,-30.907648,52.844509,42.370621,,,
248,0,145.451904,-68.553452,34.526375,41.521477,-10.145038,78.229370,96.345245,-122.130127,40.026554,-5.773959,32.015888,67.746407,-31.426083,53.340607,47.698845,,,
249,0,145.988998,-65.768517,38.381454,42.096977,-8.344206,83.801071,97.311668,-119.827316,45.258526,-5.870271,32.827469,74.200516,-31.921309,54.055237,54.583649,,,
250,0,146.625504,-62.835201,42.514351,43.101665,-6.925014,90.160042,98.714409,-117.408226,50.251427,-5.605332,34.069958,81.658241,-32.252159,55.069321,62.653282,,,
251,0,147.228378,-59.932877,47.129116,43.878586,-4.997059,97.012688,101.013657,-114.752426,54.610779,-5.104633,35.416656,89.861870,-32.528545,56.426022,71.505653,,,
252,0,148.240662,-56.613567,52.413902,45.070934,-3.136531,104.171982,101.065071,-111.775490,59.727680,-4.526456,37.090527,98.556053,-32.151749,58.267601,80.969482,,,
253,0,149.538284,-53.107365,58.241169,46.405823,-0.860278,111.440529,102.297966,-108.485443,64.324059,-3.571079,39.264515,107.380775,-31.663456,60.491982,90.422890,,,
254,0,151.137238,-49.299339,64.428062,47.911888,2.051025,118.654976,103.188255,-104.663246,69.015892,-2.434480,41.833347,115.944748,-31.016466,62.987194,99.615257,,,
255,0,153.122879,-45.071690,70.959045,49.652596,5.586403,125.763611,104.397247,-100.359413,73.676964,-0.902615,45.157082,124.098801,-29.624483,66.589096,108.398994,,,
256,0,154.829071,-40.664330,77.110214,51.595898,9.820178,132.633713,105.905838,-95.592911,78.415436,0.940033,49.235130,131.980301,-28.121294,70.680336,116.759285,,,
257,0,156.860535,-35.655159,83.208923,53.799690,14.713453,139.264114,107.424553,-90.262703,83.028000,3.093523,54.123226,139.360626,-26.150496,75.625557,124.613693,,,
258,0,159.180847,-30.131447,89.109436,56.212349,20.306845,145.567017,110.345856,-84.895012,88.773338,5.625672,59.784706,146.316605,-23.685717,81.486481,131.956497,,,
259,0,161.186371,-24.269894,94.418419,58.897949,26.571648,151.519241,113.889244,-78.958664,94.290535,8.551353,66.316460,152.811584,-20.799694,88.164040,138.799835,,,
260,0,163.480774,-17.899992,99.489967,61.740425,33.369015,157.170731,114.693336,-71.598267,98.320137,11.646659,73.317917,159.012222,-17.544643,95.659477,145.167999,,,
261,0,165.882385,-11.352657,104.366203,64.751480,40.585663,162.513840,115.845413,-64.203705,102.691086,15.129456,80.949837,164.749817,-13.825153,103.738411,151.422333,,,
262,0,168.563049,-4.539672,109.234024,67.790794,48.033607,167.482864,118.522743,-57.197437,107.715828,18.928596,89.159317,170.203903,-9.534403,112.689445,157.107208,,,
263,0,171.253479,2.181813,113.839760,70.918411,55.705151,172.147827,120.243401,-49.692860,111.866783,22.702991,97.720871,175.231033,-5.071213,121.965752,162.267136,,,
264,0,173.878265,8.899339,118.463242,74.028366,63.566483,176.508118,121.891479,-41.897552,115.785439,26.710764,106.547676,179.733536,-0.300358,131.656204,166.995682,,,
265,0,176.572952,15.611866,123.121140,77.054520,71.493385,180.441452,123.742645,-33.571358,119.032257,31.179401,115.634285,183.769501,4.622894,141.460251,171.186249,,,
266,0,179.272583,22.189499,127.757805,80.126709,79.519226,184.024200,125.567886,-25.661427,122.132973,35.469761,124.769508,187.414200,9.812449,151.566299,174.912201,,,
267,0,181.990097,28.708899,132.217743,83.255463,87.712166,187.230804,127.216431,-17.485598,125.041557,39.756790,134.034668,190.664734,14.889711,161.534698,178.259354,,,
268,0,184.758881,35.155853,136.360977,86.415344,96.014748,190.095306,129.030579,-9.467810,127.488045,44.108482,143.258728,193.542496,19.996853,171.485870,181.119537,,,
269,0,187.523788,41.656273,140.125061,89.712616,104.401192,192.465591,130.896484,-1.239078,129.951477,48.407059,152.504410,195.954391,25.099611,181.414383,183.598297,,,
270,0,190.280472,48.257957,143.393036,93.089386,112.918793,194.552353,132.625031,6.693267,131.782852,52.655346,161.752991,197.997894,29.974064,191.161255,185.668320,,,
271,0,192.921768,54.821209,146.128479,96.488396,121.389984,196.178284,134.518433,14.516971,133.783676,57.268761,170.997757,199.484512,35.303371,201.013306,187.189987,,,
272,0,195.434067,61.415466,148.433304,99.934395,129.815353,197.412598,136.429871,22.046534,135.769836,61.741550,180.110519,200.525787,40.412537,210.482620,188.134247,,,
273,0,197.968369,67.870026,150.239914,103.336525,138.096329,198.245605,138.262222,29.430962,137.616409,66.287453,189.318634,201.271210,45.495968,220.024368,188.704254,,,
274,0,200.461411,74.228172,151.742584,106.737389,146.263306,198.692963,140.083328,36.603962,139.189178,70.802040,198.038391,201.395844,50.775005,229.320038,188.806625,,,
275,0,202.753281,80.436981,152.922668,109.983406,154.170578,198.793777,141.808426,43.503147,140.444748,75.152878,206.635529,201.174103,55.912323,238.333160,188.485352,,,
276,0,205.193298,86.495438,153.945557,113.081093,161.875885,198.524521,143.545959,50.233231,141.298904,79.401329,215.015594,200.551743,60.901611,247.158554,187.725357,,,
277,0,207.485168,92.368088,154.773956,116.023491,169.411789,197.901657,145.267029,56.853893,141.753098,83.404556,223.160965,199.509018,65.682892,255.654694,186.594910,,,
278,0,209.671051,98.194061,155.360504,118.818642,176.821411,196.915619,146.999878,63.497074,141.753815,87.153091,231.046936,198.138840,70.202751,263.960449,185.078766,,,
279,0,211.720810,103.743591,155.764755,121.580238,184.168854,195.694199,148.692017,70.001297,141.308853,90.803894,238.711609,196.454529,74.507172,271.852295,183.216629,,,
280,0,213.502121,109.253456,155.878296,124.163094,191.061691,194.095444,150.328461,76.455406,140.553574,94.138443,245.980637,194.421906,78.609253,279.411957,180.992111,,,
281,0,215.297119,114.431236,155.970993,126.687973,197.796082,192.304688,151.880615,82.595871,139.706451,97.574944,253.165573,192.172409,82.712715,286.842499,178.531479,,,
282,0,217.019333,119.493324,155.895172,129.109726,204.363022,190.233337,153.379776,88.559914,138.602905,100.994980,260.190765,189.603561,86.821358,294.032654,175.749084,,,
283,0,218.700226,124.314835,155.575623,131.470047,210.669159,187.994202,154.890686,94.172348,137.438965,104.114693,266.894836,186.739319,90.665398,300.945068,172.650620,,,
284,0,220.289078,129.027008,154.995132,133.764236,216.857773,185.546051,156.291794,99.602730,136.083359,107.343407,273.368683,183.669067,94.453789,307.570374,169.355759,,,
285,0,221.880981,133.662445,154.123398,136.008545,222.859039,182.850143,157.721344,104.767227,134.711380,110.241699,279.594696,180.366180,97.913956,313.904175,165.781494,,,
286,0,223.458160,138.290375,152.903717,138.298447,228.803543,179.924149,159.104965,109.825172,133.260559,113.224335,285.827667,176.902359,101.249275,320.081909,162.020447,,,
287,0,225.112885,142.924347,151.473740,140.653595,234.800812,176.820251,160.412003,114.823746,131.783478,116.054893,291.856110,173.201370,104.384033,326.089966,158.085129,,,
288,0,226.443100,147.622635,149.587860,142.938400,240.571625,173.524857,161.592667,119.816772,130.224396,118.889687,297.709686,169.328232,107.562401,331.967499,153.969940,,,
289,0,227.795013,152.107620,147.503235,145.199951,246.344177,169.992050,162.663971,124.742966,128.626633,121.802269,303.514893,165.211853,110.740669,337.731750,149.621780,,,
290,0,229.214478,156.522949,145.635895,147.370728,251.927322,166.387100,163.714783,129.571136,127.027199,124.775291,309.134613,160.947754,114.191948,343.407928,145.101120,,,
291,0,230.296402,160.751495,143.515549,149.509201,257.310059,162.650146,164.640945,134.274933,125.299408,127.739983,314.625732,156.537537,117.609436,348.902924,140.503464,,,
292,0,231.468491,164.885208,141.535690,151.534897,262.421753,158.851669,165.569412,138.806229,123.480240,130.728271,319.849457,152.091629,121.167076,354.201965,135.866135,,,
293,0,232.621094,168.844269,139.635330,153.536957,267.433563,154.992661,166.490936,143.080811,121.579147,133.695221,324.870422,147.632874,124.695824,359.238037,131.398026,,,
294,0,233.824982,172.567719,137.842041,155.599030,272.146423,151.070908,167.443192,147.318451,119.540077,136.729324,329.602753,143.191193,128.253174,364.073608,126.883881,,,
295,0,235.093201,176.145721,136.104507,157.650223,276.601898,147.091705,168.325150,151.243118,117.485855,139.660370,334.065613,138.720306,131.760147,368.588501,122.471260,,,
296,0,236.185593,179.469910,134.154099,159.657043,280.832031,143.103592,169.421066,155.107162,115.453789,142.563187,338.250519,134.330383,135.218918,372.806702,117.981804,,,
297,0,237.155670,182.643982,131.956589,161.671295,284.830353,139.199005,170.375397,158.602020,113.522163,145.454086,342.099243,129.774841,138.502441,376.618103,113.368401,,,
298,0,238.347031,185.632462,129.833572,163.625198,288.537445,135.362473,171.333344,161.819214,111.689766,148.186569,345.779694,125.228493,141.666260,380.209808,108.544266,,,
299,0,239.496902,188.470123,127.496017,165.582993,292.080688,131.668335,172.322342,164.982193,109.840401,150.753647,349.254211,120.674751,144.599457,383.534210,103.685600,,,
300,0,240.645004,191.195068,125.033424,167.507416,295.496735,127.968239,173.172318,167.948349,108.078606,153.215836,352.433716,116.177711,147.270279,386.570770,98.911331,,,
301,0,241.891739,193.823318,122.630165,169.419510,298.601501,124.338593,174.156693,170.727341,106.346985,155.646774,355.413574,111.746201,149.705765,389.248871,94.129311,,,
302,0,242.960754,196.161011,120.026413,171.238373,301.521759,120.782242,174.921036,173.246658,104.689171,157.806839,358.164368,107.321449,152.055496,391.812897,89.500404,,,
303,0,244.066162,198.404022,117.576073,173.015457,304.244995,117.206779,175.843399,175.806793,102.924812,159.800812,360.717560,102.984879,154.204468,394.090942,84.707413,,,
304,0,245.282990,200.535095,115.304344,174.755478,306.711609,113.856621,176.575302,177.839325,101.292503,161.762543,362.985992,98.636116,156.313385,396.024872,79.944450,,,
305,0,246.385803,202.340561,112.965355,176.444092,308.878662,111.017639,177.779968,180.336197,99.291290,163.782883,365.229340,94.661736,158.443726,397.837555,75.135048,,,
306,0,247.586197,203.905502,110.847336,178.094208,310.843353,108.613426,178.609711,182.091232,97.686829,165.768738,367.059143,92.235443,160.180893,399.643311,72.261230,,,
307,0,248.781525,205.260925,108.688515,179.653503,312.407257,106.933327,179.947769,183.913589,95.903084,166.997513,368.415375,91.825134,160.528671,401.303284,71.234215,,,
308,0,249.891296,206.218796,106.455383,180.905457,313.621674,105.899147,180.741241,185.185089,94.794785,166.980789,369.445251,91.534286,160.385788,402.580353,70.202950,,,
309,0,251.010742,206.948181,104.403343,182.176392,314.588135,105.514130,181.640289,186.310852,93.960815,167.316788,370.323853,91.880066,160.495102,403.635712,69.552116,,,
310,0,251.903412,207.423767,102.677711,183.265457,315.330780,105.544754,182.310959,187.034225,93.591568,168.012115,371.224426,92.380165,160.587387,404.495697,68.932831,,,
311,0,252.668625,207.785233,101.252037,183.800430,315.770386,105.651924,182.850494,187.616165,93.436943,167.926254,371.769775,92.719604,160.170883,405.038544,68.431808,,,
312,0,253.283798,208.037918,100.139694,184.269958,316.031586,105.667313,183.333008,188.009216,93.293617,167.590546,372.121094,92.995277,159.622543,405.336731,68.035233,,,
313,0,253.843460,208.259018,99.332703,184.766174,316.254059,105.521645,183.770844,188.266769,93.033432,167.648911,372.431915,93.157478,159.330109,405.638153,67.669441,,,
314,0,254.360138,208.442780,98.634346,185.269958,316.499847,105.347794,184.129807,188.441971,92.838051,167.833893,372.751434,93.230301,159.063507,405.913452,67.330742,,,
315,0,254.843979,208.674545,97.998863,185.732208,316.731659,105.206589,185.432022,189.054184,92.124710,167.764908,372.996216,93.247047,158.668655,406.114441,67.120636,,,
316,0,255.398514,208.927780,97.458496,186.218887,316.995605,105.107361,185.278900,189.155487,92.308083,167.770279,373.306213,93.286743,158.308487,406.304596,66.912315,,,
317,0,256.012268,209.255737,97.127296,186.813675,317.384430,105.099243,185.826767,189.605743,92.191704,167.946106,373.643860,93.337532,158.155655,406.524811,66.788513,,,
318,0,256.699951,209.582962,96.939362,187.402969,317.684998,105.216911,186.361526,190.183533,92.269577,168.136032,373.992920,93.465340,158.073837,406.709290,66.776070,,,
319,0,257.111359,209.714066,96.540627,187.862869,317.966583,105.506737,186.851486,190.707596,92.506111,168.288712,374.351990,93.671394,158.232697,406.988983,66.864189,,,
320,0,257.549561,210.010559,96.304962,188.272293,318.169189,105.870415,187.192841,191.073975,92.801620,168.476074,374.695648,93.893036,158.445099,407.311401,67.012932,,,
321,0,258.000153,210.307938,96.268013,188.745789,318.436859,106.292435,187.511047,191.453537,93.014748,168.838089,375.077393,94.249489,158.907028,407.603058,67.323738,,,
322,0,258.560150,210.645157,96.854706,189.294479,318.601837,106.958389,187.900299,191.788559,93.241516,169.360703,375.353241,94.684547,159.556396,407.849701,67.722435,,,
323,0,258.890106,210.599533,97.336464,189.906662,318.705597,107.712425,188.305008,192.029205,93.569084,169.959122,375.565613,95.253616,160.317245,408.056671,68.307922,,,
324,0,259.407532,210.549484,98.052406,190.613007,318.660767,108.656479,188.727188,192.101471,94.097923,170.615692,375.643768,96.228661,160.871323,408.050812,69.317902,,,
325,0,260.047302,210.445587,98.980263,191.218887,318.374084,109.957535,189.137131,192.072525,94.846565,171.150772,375.422668,97.632462,161.345322,407.875610,70.799072,,,
326,0,260.510712,209.929276,99.891037,191.730484,317.830383,111.638947,189.532440,191.666748,95.933456,171.582169,374.951752,99.535721,161.706009,407.398376,72.778145,,,
327,0,260.827057,209.061310,100.821724,192.157883,316.938873,113.731277,189.833115,190.918777,97.362823,171.959259,374.167572,101.939606,161.956314,406.730194,75.361130,,,
328,0,261.342285,208.195251,102.318237,192.458908,315.684845,116.146713,190.239471,189.910797,98.956726,172.177170,373.022644,104.773308,162.067017,405.780243,78.382561,,,
329,0,261.674438,206.818710,103.949715,192.695526,314.121704,118.956238,190.533249,188.536713,100.770866,172.260605,371.563110,108.012711,161.922134,404.409698,81.856125,,,
330,0,261.923401,205.271515,105.793526,192.747665,312.189789,121.972755,190.728195,186.807831,102.877686,172.222443,369.751953,111.544258,161.662888,402.739288,85.664497,,,
331,0,262.092834,203.333984,107.681496,192.684586,310.045380,125.131187,190.952377,184.806107,105.028366,172.077377,367.610046,115.215591,161.217606,400.756531,89.587181,,,
332,0,262.142822,201.191223,109.680237,192.441437,307.467529,128.419418,191.053040,182.380066,107.537994,171.777969,365.041748,118.973129,160.643280,398.299408,93.566727,,,
333,0,262.005035,198.737366,111.807343,191.978668,304.430206,131.780167,191.148682,179.578384,110.053932,171.218811,362.090912,122.689133,159.905548,395.454926,97.498238,,,
334,0,261.757294,195.893402,113.943733,191.257706,301.016510,135.119675,190.904739,176.459763,112.628014,170.299835,358.626678,126.351372,158.695831,391.971069,101.338959,,,
335,0,261.339661,192.760635,116.166603,190.180496,297.096771,138.433334,190.871506,172.732559,115.225830,169.136139,354.726868,129.945206,157.304535,388.092468,105.137680,,,
336,0,260.864746,189.198715,118.402740,188.793076,292.637115,141.733582,190.474106,168.612930,117.644516,167.623184,350.259338,133.525085,155.725189,383.696869,108.778542,,,
337,0,260.218201,185.275726,120.599960,187.213058,287.658356,144.860962,190.301880,163.863022,119.983200,165.968933,345.347015,136.992279,154.001999,378.794495,112.361847,,,
338,0,259.507385,181.016266,122.732544,185.461838,282.332245,147.773438,189.848373,158.734619,121.984009,164.043289,339.945740,140.184250,152.123764,373.591888,115.778290,,,
339,0,258.712769,176.332596,124.670158,183.537735,276.628479,150.426712,189.453995,153.145660,123.696480,161.972839,334.253174,143.148041,150.051666,367.880188,118.763107,,,
340,0,257.817566,171.358353,126.533669,181.543976,270.581207,152.789276,188.954224,147.220123,125.085594,159.936142,328.118927,145.743118,147.796463,361.715607,121.382698,,,
341,0,256.840363,166.102875,128.273926,179.483643,264.179657,154.824844,188.415207,140.982101,126.259399,157.887894,321.764954,147.962860,146.071930,355.558289,123.660164,,,
342,0,255.896622,160.469833,129.855392,177.432388,257.585815,156.555649,187.889832,134.465851,127.119614,155.805176,315.216492,149.831955,144.118240,349.032288,125.483513,,,
343,0,255.034592,154.718765,131.278152,175.534119,250.917404,157.978943,187.458984,127.816605,127.721504,153.806122,308.507385,151.284485,142.196976,342.339111,126.953590,,,
344,0,254.227585,148.801422,132.597748,173.727432,244.188828,159.051819,187.145096,121.113968,128.000031,151.834625,301.728119,152.354416,140.305359,335.538879,128.004410,,,
345,0,253.516144,142.818069,133.613022,172.061874,237.405334,159.730453,186.966736,114.292274,128.116257,149.996780,294.867035,153.007050,138.393799,328.618652,128.592773,,,
346,0,252.879822,136.804031,134.209351,170.495193,230.594833,160.106064,186.822113,107.529671,128.006744,148.238586,288.025604,153.204773,136.578979,321.682159,128.723404,,,
347,0,252.353577,130.819107,134.424225,169.116669,223.957626,160.112625,186.738831,100.822922,127.769424,146.652359,281.276733,153.038513,134.898712,314.846497,128.436554,,,
348,0,251.896713,124.964340,134.333221,167.911621,217.409912,159.831009,186.858002,94.268661,127.381233,145.168427,274.535828,152.466537,133.279190,307.864136,127.605331,,,
349,0,251.610046,119.088043,134.036774,166.812729,210.839264,159.367783,187.006989,87.835991,126.918343,143.805893,268.004395,151.505951,131.773666,301.006378,126.367104,,,
350,0,251.353592,113.339340,133.484451,165.872055,204.423401,158.636780,187.167175,81.428665,126.417961,142.565491,261.504364,150.205521,130.500885,294.254303,124.777641,,,
351,0,251.209885,107.697441,132.691513,165.124786,198.231171,157.648376,187.380676,75.294693,125.824303,141.489532,255.190216,148.660202,129.374695,287.660065,122.967560,,,
352,0,251.094498,102.140900,131.702438,164.372986,192.221024,156.432297,187.535156,69.276413,125.117439,140.524673,249.050339,146.933624,128.272018,281.066864,120.927368,,,
353,0,251.065109,96.737045,130.565460,163.746140,186.304657,155.043625,187.725723,63.188881,124.334808,139.602585,242.924194,145.046951,127.238113,274.780853,118.794273,,,
354,0,251.053009,91.449768,129.351227,163.155731,180.566254,153.486023,187.981979,57.434002,123.285873,138.690018,237.028931,143.022202,126.270905,268.541565,116.492699,,,
355,0,251.116013,86.316666,128.085449,162.716492,175.028580,151.898285,188.261703,51.856121,122.136093,137.906311,231.275085,141.014557,125.451210,262.595795,114.246758,,,
356,0,251.118927,81.299744,126.829384,162.264954,169.755585,150.176270,188.495590,46.538040,120.816338,137.290710,225.882187,138.902023,124.804024,256.984741,111.971695,,,
357,0,251.183243,76.435600,125.453949,162.026672,164.796677,148.515427,188.715195,41.362053,119.387421,136.876648,220.709656,136.834915,124.601738,251.694763,109.699272,,,
358,0,251.201630,71.770226,124.020340,161.735504,159.722458,146.578842,188.917160,36.520721,117.800667,136.688599,215.843201,134.745438,124.355789,246.641129,107.462273,,,
359,0,251.240158,67.271431,122.521912,161.563736,155.090012,144.729706,189.050110,31.852041,116.154602,136.581039,211.197281,132.726257,124.531662,241.996094,105.261414,,,
360,0,251.330170,62.935307,121.045929,161.443130,150.701096,142.871078,189.178223,27.512997,114.378326,136.529373,206.745285,130.727707,124.546539,237.477570,103.072884,,,
361,0,251.392715,58.830074,119.552460,161.361557,146.489639,141.025085,189.306229,23.330050,112.601654,136.510010,202.557953,128.772705,124.597855,233.245804,100.948952,,,
362,0,251.565811,54.924374,118.144440,161.422791,142.433609,139.157257,189.498093,19.440264,110.799896,136.514023,198.594086,126.837250,124.765610,229.281799,98.935287,,,
363,0,251.695251,51.209915,116.578201,161.420227,138.723312,137.369614,189.627167,15.765415,109.081383,136.593155,194.833008,125.014336,124.992760,225.515411,96.999641,,,
364,0,251.856781,47.664532,115.082664,161.542023,135.227493,135.628204,189.766998,12.429046,107.510719,136.822800,191.351303,123.180428,125.376564,222.045166,95.178246,,,
365,0,251.948441,44.276207,113.370041,161.769287,131.944443,133.887634,189.792801,9.404211,106.055138,137.139771,188.113235,121.472107,125.783142,218.791611,93.390556,,,
366,0,252.364105,41.195885,111.864685,162.094452,128.854095,132.231659,189.769501,6.597474,104.686058,137.595032,185.190582,119.886528,126.223549,215.855545,91.767578,,,
367,0,252.618973,38.227337,110.126747,162.542465,126.024765,130.586594,190.151199,3.405376,102.795547,138.050812,182.443146,118.347206,126.644028,212.987717,90.211746,,,
368,0,252.943817,35.456917,108.439140,162.974396,123.374222,129.050919,191.124695,-0.075282,100.774277,138.499847,179.648422,116.816124,127.054375,210.428879,88.899544,,,
369,0,253.212814,32.951290,106.706894,163.390549,120.915817,127.534706,191.336227,-2.667080,99.217407,138.925446,177.198898,115.445572,127.446861,208.095276,87.651413,,,
370,0,253.532913,30.656105,105.192657,163.773132,118.647217,126.102325,191.391052,-4.763258,97.615067,139.317673,174.926544,114.168404,127.870667,205.918671,86.437782,,,
371,0,253.815048,28.436838,103.835495,164.124893,116.465164,124.742760,191.542328,-6.912530,96.258377,139.692657,172.860489,112.919518,128.191467,203.908936,85.298248,,,
372,0,253.914688,26.319187,102.382111,164.423370,114.474121,123.470375,191.705460,-8.888924,94.935593,140.021622,170.826950,111.773560,128.538406,201.861374,84.161240,,,
373,0,254.139481,24.438429,101.223343,164.762360,112.590179,122.292152,191.803741,-10.755455,93.708977,140.443436,168.992615,110.667946,128.950333,200.187088,83.152924,,,
374,0,254.163834,22.578276,99.924263,165.123077,110.809700,121.162697,191.905075,-12.378792,92.470573,140.873795,167.253983,109.624634,129.289001,198.363373,82.126701,,,
375,0,254.512939,20.848461,98.921097,165.529312,109.184479,120.050293,192.017639,-14.049928,91.260437,141.398666,165.660110,108.631012,129.843964,196.841293,81.175972,,,
376,0,254.692261,19.153671,97.747643,165.995453,107.622940,118.990280,192.143951,-15.567471,90.179405,141.915283,164.185150,107.638809,130.445190,195.356216,80.246803,,,
377,0,254.755173,17.404837,96.413551,166.484970,106.168877,117.922150,192.236145,-17.073746,89.082497,142.585297,162.769653,106.654366,131.117493,193.989914,79.232758,,,
378,0,255.102310,15.866762,95.228592,166.970215,104.770226,116.860390,192.473541,-18.523142,88.030663,143.238693,161.483826,105.628502,131.876663,192.712891,78.176842,,,
379,0,255.361465,14.425899,94.032448,167.574448,103.510590,115.807167,192.600876,-19.815159,86.965439,143.938934,160.298492,104.624115,132.625687,191.571274,77.204720,,,
380,0,255.830734,13.079004,92.931870,168.163727,102.362572,114.649834,192.871933,-21.162363,85.844154,144.706818,159.221802,103.529930,133.369293,190.465378,76.116203,,,
381,0,256.128143,11.804573,91.602127,168.733795,101.302536,113.401627,193.128433,-22.352598,84.699692,145.464005,158.198883,102.346870,134.130966,189.468536,75.013901,,,
382,0,256.510498,10.680511,90.336067,169.364319,100.283882,112.086243,193.465057,-23.255623,83.427666,146.104889,157.190903,101.057930,134.788361,188.500702,73.791031,,,
383,0,257.105713,9.667553,89.262726,169.923569,99.388298,110.592575,193.766296,-24.099958,82.133614,146.743866,156.205429,99.465858,135.393982,187.521576,72.242149,,,
384,0,257.452606,8.534346,88.015877,170.516678,98.539856,108.904526,194.169220,-25.059418,80.938248,147.367447,155.243179,97.551704,136.087982,186.633698,70.348267,,,
385,0,257.956024,7.415766,86.838524,171.308853,97.823700,107.166046,194.497055,-25.844288,79.722153,148.151047,154.355545,95.520393,136.651825,185.622925,68.340485,,,
386,0,258.394806,6.306947,85.360779,172.009354,96.995010,105.546547,194.876190,-26.785028,78.616013,148.729462,153.459671,93.433975,137.171692,184.412079,66.059410,,,
387,0,259.028442,5.101670,83.887398,172.807312,96.140495,104.006699,195.153046,-27.785145,77.686165,149.629410,152.623779,91.050987,138.183350,183.302826,63.363770,,,
388,0,259.080933,4.006086,82.600319,173.465149,95.362518,102.309166,195.546158,-28.978514,77.152061,150.548203,151.753922,88.570038,138.751694,182.070007,60.892269,,,
389,0,259.704834,2.710992,81.230385,174.039001,94.369408,100.958282,195.900024,-30.300671,76.686165,151.387085,150.508347,87.587585,139.208664,181.387482,60.819191,,,
390,0,260.120697,1.721949,79.549667,174.473511,93.216064,100.343147,196.204269,-31.409763,75.937897,151.375763,149.331360,87.764450,138.626984,180.395798,61.558907,,,
391,0,260.587433,0.961789,78.536713,174.722305,92.342453,99.758682,196.577209,-32.243649,74.927162,151.577209,148.323105,87.464302,139.090851,179.918396,61.973900,,,
392,0,260.824646,0.157231,78.319366,174.973282,91.731575,99.251022,196.921249,-33.149971,74.106674,151.850677,147.693802,86.909760,139.115356,179.376923,61.919815,,,
393,0,260.984711,-0.593014,78.450279,174.964493,91.346519,98.756554,196.980270,-33.868141,73.745399,151.614090,147.084442,86.171829,138.679779,178.793350,61.549355,,,
394,0,260.816864,-1.010881,78.551857,174.765656,90.987984,98.294571,196.955139,-34.184059,73.570366,151.247604,146.490311,85.873970,137.846146,178.167297,61.553905,,,
395,0,260.775696,-1.092939,78.741478,174.527710,90.649857,98.168289,196.729156,-34.184994,73.376549,150.825363,146.010193,85.696831,137.574875,177.774048,61.589718,,,
396,0,260.743805,-1.033077,79.169006,174.430176,90.587143,98.006927,196.657684,-34.044048,73.368988,150.810989,145.799911,85.461891,137.418182,177.534119,61.663219,,,
397,0,260.761108,-0.896994,79.886505,174.384842,90.677612,97.901199,196.606567,-33.671478,73.565773,150.796066,145.668182,85.189781,137.322952,177.381210,61.680458,,,
398,0,260.722504,-0.754026,80.536163,174.413849,90.917397,97.791222,196.674316,-33.349640,73.883888,150.910202,145.703705,84.980019,137.328461,177.308609,61.813148,,,
399,0,261.202576,-0.479713,81.306610,174.531372,91.234253,97.720390,196.764221,-32.899242,74.222717,151.138351,145.840576,84.735199,137.453079,177.410858,61.987373,,,
400,0,261.091156,-0.117191,81.810020,174.732422,91.645821,97.680756,197.611374,-33.129364,74.865082,151.464874,146.064499,84.489914,137.748093,177.548416,62.258221,,,
401,0,261.693146,0.194394,82.423759,175.036438,92.029327,97.721344,197.438065,-32.397720,75.352234,151.736755,146.288544,84.227669,138.104828,177.712936,62.631123,,,
402,0,261.899353,0.534806,82.911850,175.341965,92.439339,97.792152,197.287415,-31.624430,75.879166,152.149048,146.591934,83.865517,138.558365,177.846634,63.074322,,,
403,0,262.044830,0.814757,83.275230,175.559189,92.756989,97.901161,197.220093,-30.842409,76.511093,152.389114,146.758759,83.658150,138.949539,177.944122,63.728771,,,
404,0,262.027802,0.939879,83.597694,175.654419,92.838661,98.259018,197.126160,-30.897171,76.891846,152.367447,146.694336,83.622437,139.215469,177.854935,64.629555,,,
405,0,261.858795,0.941674,83.931488,175.522797,92.659431,98.848389,196.974258,-30.931286,77.487389,152.234619,146.443497,83.928902,139.497971,177.620865,65.754311,,,
406,0,261.594849,0.724010,84.376213,175.243912,92.220261,99.615387,196.626877,-31.269785,78.183449,152.220673,146.174362,84.546799,139.844193,177.291931,67.082832,,,
407,0,260.741638,0.393093,84.831589,174.802673,91.543510,100.758995,196.110703,-31.888786,78.836601,152.034180,145.676804,85.734787,139.925186,176.825836,68.938591,,,
408,0,260.294830,-0.213559,85.588051,174.168274,90.593887,102.249352,195.450302,-32.706787,79.445824,151.555206,144.906570,87.726433,139.827789,176.300797,71.501389,,,
409,0,259.430328,-1.035995,86.283218,173.331894,89.413918,104.186760,194.643097,-33.619461,79.973816,150.988495,144.036438,90.423004,139.531769,175.746475,74.805161,,,
410,0,258.210388,-2.191605,86.950142,172.197083,88.034767,106.557411,193.706100,-34.779446,80.553627,150.204346,143.024078,93.664398,138.902084,175.056946,78.515427,,,
411,0,256.937683,-3.296845,87.859245,170.832245,86.453796,109.303009,192.559540,-36.039589,81.120895,148.954041,141.855515,97.278976,137.747772,174.082840,82.375046,,,
412,0,255.470520,-4.462829,88.633896,169.140808,84.631126,112.448715,191.211761,-37.313015,81.863739,147.328705,140.567032,101.234474,136.058395,172.924133,86.421547,,,
413,0,253.727051,-5.588370,89.649071,167.247177,82.649315,115.818840,189.790009,-38.866146,82.687561,145.176178,138.910416,105.487808,133.680481,171.370255,90.557632,,,
414,0,251.748169,-6.865252,90.514374,165.069290,80.445549,119.309456,188.112106,-40.425278,83.465057,142.097153,137.155670,110.015633,130.633392,169.653122,94.708534,,,
415,0,249.586777,-8.125383,91.599869,162.602142,78.089027,122.861450,186.248260,-42.093040,84.198997,138.713226,135.047043,114.436630,126.940887,167.571609,98.696732,,,
416,0,247.204773,-9.434601,92.745453,159.905609,75.668076,126.408340,184.243713,-43.880230,85.030777,135.076080,132.774918,118.702385,122.788116,165.144424,102.448586,,,
417,0,244.603699,-10.755940,93.901825,157.021042,73.140938,129.944641,182.099640,-45.687748,85.898651,130.963638,130.242844,122.757233,118.311813,162.372101,105.932693,,,
418,0,241.812637,-12.081133,95.070091,153.796677,70.317024,133.298584,179.752090,-47.615982,86.634460,126.770836,127.513763,126.656784,113.573555,159.414307,109.312653,,,
419,0,238.865891,-13.444901,96.110046,150.483765,67.400513,136.494232,177.333221,-49.644714,87.348053,122.523293,124.607826,130.419922,108.802322,156.236954,112.703239,,,
420,0,235.795242,-14.802663,97.001587,146.994827,64.280266,139.423370,174.697144,-51.625134,87.902542,118.091423,121.479996,134.043900,103.791344,152.917953,116.109962,,,
421,0,232.561707,-16.150753,97.646606,143.399292,60.989906,142.141449,172.006485,-53.765942,88.375053,113.623123,118.271629,137.664337,98.510437,149.293274,119.547607,,,
422,0,229.216675,-17.565664,97.996506,139.592621,57.686512,144.528030,169.156235,-55.870544,88.756088,108.777565,114.473755,141.019196,93.217117,145.566849,122.973412,,,
423,0,225.744080,-19.015253,98.044037,135.693985,54.049343,146.681717,166.323105,-58.270611,89.047539,104.118790,110.687302,144.189301,87.921104,141.746994,126.166656,,,
424,0,222.139725,-20.536810,97.901726,131.673431,50.301472,148.449265,163.388245,-60.795273,89.095833,99.150291,106.631088,147.072800,82.349869,137.519913,129.125305,,,
425,0,218.425049,-22.134901,97.584427,127.568367,46.487614,149.850159,160.350235,-63.275375,88.880531,94.079201,102.357681,149.503601,76.531616,133.139587,131.657410,,,
426,0,214.627716,-23.809271,97.164268,123.331512,42.563240,150.863190,157.365326,-65.925125,88.474716,88.762848,97.966637,151.398651,70.530777,128.568588,133.625504,,,
427,0,210.779785,-25.600832,96.611824,119.128433,38.671947,151.433899,154.343948,-68.654221,87.796005,83.319221,93.482681,152.680405,64.333206,123.753944,135.001053,,,
428,0,207.040009,-27.494471,95.965225,114.778015,34.820423,151.518478,151.249725,-71.322945,86.921921,77.647369,88.921371,153.292725,57.919632,118.890533,135.741882,,,
429,0,203.271866,-29.362099,95.040260,109.949493,31.116386,151.080139,148.275742,-74.195656,85.957169,71.933624,84.287781,153.299484,51.396675,113.875107,135.887985,,,
430,0,199.419403,-31.417097,93.895065,105.314270,27.383886,150.261993,145.211060,-77.153244,84.854416,66.106712,79.700806,152.689758,44.803967,108.848999,135.294128,,,
431,0,195.563919,-33.297886,92.342911,100.543159,23.776247,148.967453,142.345200,-80.016693,83.767868,60.082649,75.228378,151.443130,38.118546,103.731522,134.091171,,,
432,0,191.670456,-35.317394,90.536850,95.777908,20.250557,147.214615,139.569412,-82.722969,82.757202,53.965824,70.648445,149.548111,31.318523,98.564629,132.315002,,,
433,0,187.771118,-37.219044,88.530815,90.999268,16.867210,145.014618,134.692902,-86.428070,81.509689,47.862392,66.114449,147.188950,24.568369,93.441322,129.886765,,,
434,0,183.989380,-39.133915,86.275230,86.167267,13.551063,142.436462,132.507584,-89.187912,79.465813,41.844620,61.692783,144.331955,17.964191,88.466644,127.049286,,,
435,0,180.263214,-41.029396,83.911560,81.463135,10.331248,139.538132,130.346298,-92.547264,77.038284,35.842896,57.394444,140.956909,11.583421,83.564285,123.681221,,,
436,0,176.850677,-42.886402,81.648026,76.778122,7.198879,136.288391,125.780029,-95.689255,75.163620,30.250055,53.257771,137.315765,5.445200,78.805061,119.890633,,,
437,0,173.362228,-44.783661,79.046638,72.292358,4.166862,132.827988,123.862198,-98.231705,72.636703,24.990463,49.395042,133.423279,-0.022011,74.692604,116.062965,,,
438,0,170.038879,-46.570553,76.436844,67.978622,1.337515,129.204086,121.236008,-100.773079,70.172470,20.001984,45.650639,129.279129,-5.312491,70.588928,111.935600,,,
439,0,166.999878,-48.296200,73.782806,63.990795,-1.306725,125.466927,118.806816,-103.018211,67.442825,15.541630,42.389526,125.274330,-10.041976,66.844757,107.712875,,,
440,0,164.201111,-49.912346,71.120003,60.407368,-3.650704,121.726768,116.660690,-105.223259,64.721016,11.742233,39.552597,121.260857,-14.237510,63.645119,103.753036,,,
441,0,161.687088,-51.432240,68.435196,57.124065,-5.799379,118.066734,114.604790,-107.024742,62.004288,8.199954,36.942482,117.433052,-18.627256,60.538288,99.941154,,,
442,0,159.484497,-52.767170,65.726715,54.345959,-7.533241,114.476143,113.014099,-108.574142,59.181431,4.902626,34.476254,113.657402,-21.516977,58.276970,96.234215,,,
443,0,157.688980,-53.699097,63.083469,51.983105,-8.965607,111.109810,111.425476,-110.016434,56.476994,2.374098,32.673317,110.078224,-24.269848,56.274376,92.781830,,,
444,0,155.742905,-54.798134,60.392864,49.955532,-10.091690,107.939117,110.019356,-111.255356,53.825928,0.335871,31.299059,106.777130,-26.198498,54.991840,89.504738,,,
445,0,154.265503,-55.651501,57.895962,48.247757,-11.034410,104.970932,108.445168,-112.261940,51.422127,-1.200446,30.449221,103.790375,-27.626085,54.222099,86.408455,,,
446,0,152.977478,-56.506485,55.533630,46.885372,-11.817132,102.226494,107.355568,-113.041260,49.006718,-2.186062,29.877979,100.954529,-28.433126,53.704731,83.592346,,,
447,0,151.877960,-57.227047,53.315117,45.802570,-12.513263,99.727440,106.245407,-113.817062,46.834343,-3.141896,29.341982,98.482056,-29.233139,53.322144,81.218819,,,
448,0,151.068695,-58.017246,51.396851,45.050236,-13.050004,97.567680,105.374756,-114.435333,44.777721,-3.610829,29.029501,96.371147,-29.789911,52.997826,79.003792,,,
449,0,150.378922,-58.711590,49.592979,44.507034,-13.561079,95.583748,104.376266,-115.069916,43.058788,-3.950133,28.634199,94.467590,-29.973997,52.852390,77.305939,,,
450,0,149.888321,-59.432903,47.876076,44.162876,-13.893601,93.894409,103.784271,-115.640877,41.399750,-4.274783,28.316576,92.830292,-30.362705,52.464462,75.664886,,,
451,0,149.439026,-60.090271,46.255535,44.140812,-14.441111,92.343269,103.281540,-116.270180,40.065563,-4.490507,27.938635,91.511673,-30.475542,52.203873,74.393166,,,
452,0,149.099640,-60.720207,44.631168,43.909134,-14.666916,91.006096,102.749817,-116.936043,38.791679,-4.409585,27.666800,90.241676,-30.308788,52.159439,73.396942,,,
453,0,148.698059,-61.324745,43.161255,44.067703,-15.262538,89.873245,102.512428,-117.542702,37.867298,-4.259017,27.431141,89.320740,-30.066555,52.010406,72.416405,,,
454,0,148.368530,-61.941978,41.848015,43.759708,-15.572450,88.781830,102.215729,-118.192322,37.009567,-4.222828,27.202963,88.508713,-30.001785,51.686878,71.499268,,,
455,0,148.106659,-62.574699,40.710121,43.853939,-16.245146,87.857079,101.765594,-118.979515,36.312576,-4.236255,26.727081,87.562492,-30.042475,51.373615,70.645554,,,
456,0,147.811981,-63.234241,39.704597,43.709518,-16.749958,86.953644,101.619270,-119.761131,35.674156,-4.435052,26.077112,86.521919,-30.308386,50.746952,69.747612,,,
457,0,147.569733,-63.914574,38.868408,43.422955,-17.373123,86.138199,101.366203,-120.397629,35.122650,-4.748432,25.499193,85.667641,-30.734766,49.874943,68.645767,,,
458,0,147.318497,-64.549973,38.116417,42.919041,-17.905258,85.283035,101.159172,-121.183861,34.622822,-5.039638,24.796368,84.719078,-31.116127,49.022453,67.505653,,,
459,0,147.060104,-65.109093,37.341255,42.657291,-18.598351,84.423546,101.205345,-121.864349,34.062931,-5.990530,23.793264,83.567398,-31.812891,48.133877,66.394020,,,
460,0,146.753479,-65.681427,36.527592,42.243660,-19.211292,83.506020,100.863480,-122.576935,33.392532,-6.695800,22.936890,82.491852,-32.353168,47.190849,64.997513,,,
461,0,146.416138,-66.187759,35.731415,41.763279,-19.959648,82.510429,100.787300,-123.053810,32.700031,-7.166316,22.223846,81.377129,-32.806316,46.498970,63.802010,,,
462,0,146.102203,-66.612892,34.844589,41.404427,-20.493198,81.518456,100.558830,-123.585548,31.921785,-7.674953,21.584255,80.174652,-33.273357,45.895256,62.598316,,,
463,0,145.797577,-67.072639,33.986549,41.020706,-20.963453,80.380524,100.286324,-124.041893,31.216583,-7.500803,21.500402,78.983444,-33.880730,45.129940,61.011345,,,
464,0,145.553589,-67.471092,33.078403,40.744492,-21.175827,79.203636,99.928123,-124.365326,30.559406,-7.692047,21.319668,77.515350,-34.089558,44.889690,59.457848,,,
465,0,145.357025,-67.725014,32.187904,40.560017,-21.279058,77.921501,99.362831,-124.851494,29.596518,-8.514081,20.759207,75.750351,-34.171429,44.711494,57.651943,,,
466,0,145.226654,-68.026367,31.198933,40.399502,-21.236347,76.478981,99.329323,-125.036644,28.858311,-8.713945,20.689207,73.868912,-34.584152,44.319656,55.561249,,,
467,0,145.154968,-68.288971,30.185061,40.287968,-21.012291,74.938934,99.480690,-125.135544,28.014629,-8.971661,20.603561,71.601418,-34.944172,43.952225,52.952030,,,
468,0,145.164566,-68.500214,28.974636,40.246651,-20.696243,73.255508,99.325226,-125.361252,27.226784,-9.147046,20.755470,69.200378,-35.185963,43.819664,50.155399,,,
469,0,145.195084,-68.695549,27.641573,40.156113,-20.027378,71.274147,99.117599,-125.479874,26.336264,-9.305865,21.071754,66.562492,-35.054054,43.948139,47.033585,,,
470,0,145.255280,-68.902573,26.184896,40.072418,-19.511002,69.097229,99.028992,-125.671791,25.442427,-9.236032,21.527998,63.572502,-35.053207,44.051388,43.615227,,,
471,0,145.285400,-69.119377,24.559191,39.871750,-19.117529,66.850204,99.114449,-125.870895,24.423796,-9.386627,21.814217,60.196327,-34.903191,44.125565,39.826012,,,
472,0,145.246918,-69.282967,22.909885,39.294731,-19.179111,64.726326,98.877724,-125.883728,23.339697,-9.535954,22.058910,57.276058,-34.941723,44.081303,37.034588,,,
473,0,145.214722,-69.558205,21.392120,38.802483,-19.564323,63.061348,99.744110,-126.219780,21.430607,-9.281047,21.278019,57.141655,-35.621410,43.455196,37.278755,,,
474,0,145.150604,-69.873840,20.122303,38.456081,-20.872721,62.287975,100.084778,-126.450943,20.075552,-10.053589,19.850454,56.812393,-35.727367,42.745792,37.246681,,,
475,0,145.030243,-70.300011,19.230545,38.206001,-22.320940,61.969173,97.925980,-126.788750,19.287294,-10.495725,18.621031,56.665520,-36.017712,41.919846,37.203903,,,
476,0,144.886612,-70.821556,18.963072,37.815464,-23.163042,61.620220,97.757652,-127.427086,18.192333,-10.659188,18.096823,56.472603,-36.058796,41.582977,37.113754,,,
477,0,144.732178,-71.449020,19.088165,37.645325,-23.458017,61.462421,99.008804,-128.421448,16.883257,-10.640157,17.990904,56.383808,-36.073837,41.461121,37.035480,,,
478,0,144.469772,-71.962021,19.417627,37.534714,-23.473080,61.462917,98.328163,-129.088562,16.785988,-10.678477,18.003803,56.381580,-36.133026,41.492588,37.007160,,,
479,0,144.195511,-72.391663,19.731035,37.337376,-23.410343,61.629772,97.760139,-129.380219,17.005007,-10.769275,18.108736,56.452866,-36.255470,41.593937,36.992241,,,
480,0,143.863358,-72.626427,19.920563,37.203430,-23.085024,61.868389,96.967529,-129.298019,18.102781,-10.814571,18.412914,56.553856,-36.427509,41.773247,37.028835,,,
481,0,143.619446,-72.730347,19.875669,37.284882,-22.323858,62.036110,96.689224,-129.309525,18.868679,-10.776155,18.882450,56.698090,-36.533928,42.072163,37.047035,,,
482,0,143.450974,-72.651688,19.627474,37.515102,-21.688778,62.173008,96.347984,-129.235382,19.262724,-10.611490,19.389578,56.794899,-36.612396,42.432293,37.115170,,,
483,0,143.321365,-72.619415,19.171328,37.603477,-21.265568,62.230434,96.372108,-129.019302,19.719795,-10.410940,19.922123,56.862926,-36.639050,42.747612,37.150269,,,
484,0,143.248627,-72.592712,18.623234,37.854752,-20.731672,62.203400,96.174812,-128.728058,20.165033,-10.256367,20.328714,56.874050,-36.649441,43.031609,37.174747,,,
485,0,143.223267,-72.552429,18.012980,38.055595,-20.269424,62.099854,96.005264,-128.459320,20.442951,-10.049486,20.719315,56.894062,-36.290794,43.416348,37.156101,,,
486,0,143.235306,-72.599068,17.383207,38.302464,-19.930552,62.029583,96.077179,-128.249847,20.598234,-9.720811,21.017216,56.904224,-36.513531,43.608601,37.026463,,,
487,0,143.260132,-72.764191,16.739231,38.471016,-19.743570,61.914532,95.850845,-128.051651,20.458759,-9.680753,21.186516,56.685623,-36.307632,43.748268,37.149170,,,
488,0,143.216568,-73.007774,16.131979,39.248718,-19.629719,61.929634,95.575523,-128.198380,20.094673,-9.499773,21.199169,56.858070,-36.015450,43.960850,37.142941,,,
489,0,143.150208,-73.235268,15.611285,38.599457,-19.781826,61.699467,95.487877,-128.315109,19.683006,-9.485159,21.150816,56.869625,-35.975830,43.997387,37.185093,,,
490,0,143.082214,-73.535408,15.178383,38.583271,-19.937826,61.591404,95.344727,-128.561691,19.274170,-9.479108,21.082827,56.872456,-36.019169,43.960293,37.225891,,,
491,0,142.910233,-73.864830,14.806456,38.557167,-20.154856,61.473526,95.226639,-128.794098,18.861551,-9.469321,21.010092,56.866066,-36.115395,43.921505,37.274025,,,
492,0,142.748260,-74.231735,14.513234,38.447903,-20.313248,61.350552,94.931290,-129.019287,18.300110,-9.483344,20.951708,56.834229,-36.514645,43.518227,37.315678,,,
493,0,142.537338,-74.576118,14.285407,38.397411,-20.508535,61.253460,94.683693,-129.287277,17.835579,-9.512176,20.891092,56.851334,-36.459122,43.537247,37.422115,,,
494,0,142.307175,-74.852531,14.090238,38.267818,-20.664181,61.227959,94.235657,-129.483307,17.374237,-9.573816,20.947916,56.872143,-36.493343,43.616451,37.458351,,,
495,0,141.990143,-75.129982,13.890326,38.209473,-20.638237,61.223175,94.035339,-129.712280,17.146158,-9.591512,20.998392,56.894611,-36.496567,43.675442,37.459492,,,
496,0,141.391098,-75.280464,13.406114,38.168240,-20.647409,61.201897,93.676903,-129.812164,16.945538,-9.616220,21.058397,56.943909,-36.525963,43.788155,37.485489,,,
497,0,141.292694,-75.513580,13.401726,38.064816,-20.548985,61.232643,93.257812,-129.775589,16.827280,-9.690457,21.144920,56.964783,-36.633030,43.824478,37.468010,,,
498,0,141.094971,-75.559471,13.003962,38.042789,-20.386955,61.276718,93.048225,-129.857681,16.926054,-9.654137,21.325417,56.897926,-36.667957,43.888264,37.451141,,,
499,0,140.897415,-75.761360,12.838194,38.067017,-20.327381,61.259178,92.855309,-129.796341,17.026686,-9.682962,21.402283,56.922558,-36.690029,43.933086,37.444324,,,
500,0,140.754578,-75.873566,12.526937,38.117920,-20.201338,61.201157,92.710938,-129.830154,17.140793,-9.584109,21.531235,56.874222,-36.244099,44.084862,37.519451,,,
501,0,140.656601,-76.000328,12.241014,38.120312,-20.143221,61.113075,92.511505,-129.862671,17.215364,-9.539110,21.550657,56.869556,-36.204250,44.096222,37.403606,,,
502,0,140.607224,-76.110382,11.990257,38.218422,-20.228035,61.065956,92.456177,-129.933914,17.134457,-9.567436,21.542318,56.850060,-36.373764,44.098427,37.362190,,,
503,0,140.625824,-76.239288,11.732427,38.237820,-20.286127,60.991943,92.499519,-129.957047,17.074165,-9.538113,21.525963,56.837673,-36.350330,43.975445,37.399284,,,
504,0,140.638702,-76.362343,11.571097,38.240131,-20.459881,60.920448,92.315849,-130.144211,16.833214,-9.473928,21.450127,56.822853,-36.600540,43.492233,37.428238,,,
505,0,140.632492,-76.513702,11.462989,38.211411,-20.647556,60.843185,92.517822,-130.242538,16.682680,-9.417758,21.351593,56.780113,-36.506496,43.714584,37.251678,,,
506,0,140.694504,-76.609177,11.395409,38.318844,-20.743338,60.839626,92.501915,-130.461685,16.526262,-9.388691,21.274220,56.760071,-36.478622,43.647026,37.250721,,,
507,0,140.756912,-76.679306,11.360196,38.260094,-20.841988,60.768280,92.573364,-130.485275,16.290688,-9.364868,21.180113,56.775276,-36.436199,43.565304,37.262066,,,
508,0,140.792831,-76.757416,11.295812,38.336666,-20.953394,60.716766,92.580521,-130.492249,16.067509,-9.370597,21.068403,56.757423,-36.374954,43.541355,37.245663,,,
509,0,140.831436,-76.709221,11.246904,38.305172,-21.068069,60.710884,92.504379,-130.589844,15.948724,-9.346987,21.048527,56.725533,-36.407303,43.458870,37.306019,,,
510,0,140.802704,-76.634308,11.231366,38.271317,-21.096884,60.750450,92.479675,-130.440506,15.867972,-9.383496,20.985435,56.765266,-36.405704,43.464741,37.332771,,,
511,0,140.765152,-76.582512,11.195114,38.204586,-21.076162,60.748867,92.438019,-130.339844,15.762821,-9.439913,20.947018,56.936302,-36.401405,43.537861,37.353611,,,
512,0,140.777847,-76.461632,11.211604,38.267136,-21.033215,60.814754,92.393272,-130.231293,15.884623,-9.346266,20.967196,57.064281,-36.448006,43.543690,37.404400,,,
513,0,140.746887,-76.378235,11.264331,38.254482,-20.927732,60.849659,92.593216,-130.129868,15.916881,-9.344725,21.048994,57.114094,-36.533871,43.600922,37.580879,,,
514,0,140.736069,-76.267685,11.301937,38.271393,-20.846741,60.920246,92.556305,-130.122986,15.995561,-9.379246,21.164324,57.145390,-36.461033,43.733456,37.515831,,,
515,0,140.726868,-76.169846,11.344428,38.381638,-20.644178,60.943016,92.755005,-130.078094,16.106831,-9.364751,21.310253,57.170425,-36.454762,43.849110,37.461811,,,
516,0,140.743774,-76.109024,11.302057,38.286163,-20.556353,60.930584,92.704964,-130.026199,16.188759,-9.401477,21.407005,57.156742,-36.154408,44.226078,37.506336,,,
517,0,140.739349,-76.042244,11.289290,38.345520,-20.501989,60.965073,92.627312,-129.961945,16.229565,-9.354903,21.503904,57.143505,-36.129669,44.309189,37.463013,,,
518,0,140.746292,-76.000404,11.190400,38.415768,-20.410122,60.956211,92.690651,-129.908676,16.248976,-9.315245,21.564611,57.136936,-36.102627,44.320484,37.425930,,,
519,0,140.772339,-76.023849,11.092783,38.496082,-20.375341,60.917877,92.816032,-129.877472,16.340818,-9.248705,21.571999,57.089432,-36.050957,44.319038,37.386002,,,
520,0,140.834518,-76.033272,11.030629,38.565403,-20.439640,60.869415,92.633835,-129.916779,16.346163,-9.224804,21.504631,57.116760,-36.030476,44.241920,37.410835,,,
521,0,140.843430,-76.095512,10.979568,38.534843,-20.559757,60.811378,92.862762,-129.938568,16.240465,-9.167066,21.436150,57.092148,-36.010487,44.122097,37.406643,,,
522,0,140.905991,-76.168884,10.911959,38.592407,-20.675726,60.739819,92.847549,-130.083923,16.231636,-9.139574,21.234623,57.098064,-36.302406,43.652996,37.373432,,,
523,0,141.007065,-76.248413,10.859827,38.538616,-20.819004,60.684578,92.990242,-130.165695,16.085659,-9.182303,21.101248,57.072048,-36.342113,43.516270,37.380737,,,
524,0,141.018570,-76.304146,10.819166,38.610081,-20.946392,60.696514,93.040604,-130.315964,15.961995,-9.184659,20.964277,57.044609,-36.366608,43.396210,37.361080,,,
525,0,141.014206,-76.407639,10.789837,38.509651,-21.047577,60.638493,92.989716,-130.364883,15.935552,-9.220038,20.840799,57.025257,-36.329800,43.379128,37.282497,,,
526,0,141.020477,-76.413208,10.805412,38.354836,-21.193830,60.549931,93.023491,-130.401169,15.734343,-9.250031,20.803404,57.017555,-36.378368,43.314243,37.334911,,,
527,0,140.934265,-76.374985,10.822213,38.374310,-21.159906,60.570236,92.978424,-130.418442,15.706692,-9.310518,20.790451,57.026485,-36.426945,43.366524,37.312637,,,
528,0,140.889557,-76.380867,10.882636,38.372375,-21.126572,60.654079,92.946213,-130.377930,15.731290,-9.309072,20.848927,57.096191,-36.470097,43.476887,37.313969,,,
529,0,140.812332,-76.248962,10.971991,38.380089,-21.033289,60.710407,93.033195,-130.324615,15.788760,-9.360701,20.926144,57.164364,-36.467911,43.615849,37.366131,,,
530,0,140.810349,-76.191582,11.081822,38.341568,-20.879250,60.768684,92.716568,-130.195587,15.825743,-9.327706,21.088642,57.222134,-36.431248,43.782269,37.398975,,,
531,0,140.761459,-76.085716,11.076293,38.348511,-20.739794,60.819305,92.725021,-130.047058,15.987709,-9.321080,21.279011,57.293957,-36.172039,44.185837,37.464756,,,
532,0,140.735306,-76.002113,11.071650,38.412983,-20.529507,60.929249,92.790039,-129.908859,16.121244,-9.307834,21.495396,57.348934,-36.086067,44.356033,37.506077,,,
533,0,140.742081,-75.872780,11.073460,38.431610,-20.335770,60.977879,92.655182,-129.821762,16.181145,-9.307343,21.645092,57.445965,-36.060757,44.518223,37.463051,,,
534,0,140.738388,-75.818207,11.059397,38.552311,-20.166162,61.082642,92.651939,-129.641541,16.319380,-9.290680,21.761696,57.440071,-36.017368,44.615246,37.489937,,,
535,0,140.769394,-75.758469,11.024402,38.566414,-20.086548,61.099094,92.554214,-129.631531,16.356817,-9.220764,21.858736,57.442940,-36.006481,44.673500,37.444046,,,
536,0,140.784439,-75.702797,10.989433,38.627079,-20.097551,61.113758,92.589798,-129.575623,16.474546,-9.073319,21.819489,57.476608,-36.017143,44.710148,37.348083,,,
537,0,140.805908,-75.732925,10.979390,38.670444,-20.123802,61.071972,92.491829,-129.701736,16.399952,-9.067898,21.787289,57.412586,-36.020618,44.744125,37.250160,,,
538,0,140.814438,-75.743347,10.885407,38.531101,-20.268948,61.016575,92.663994,-129.697098,16.405621,-9.114515,21.712080,57.328785,-36.062557,44.704937,37.203129,,,
539,0,140.749298,-75.778214,10.853758,38.545193,-20.366892,61.005146,92.740837,-129.757736,16.227318,-9.249499,21.635834,57.215145,-36.124630,44.675907,37.146423,,,
540,0,140.737503,-75.847839,10.821680,38.491962,-20.529661,60.928570,92.770615,-129.899246,16.038771,-9.353152,21.557816,57.137493,-36.090240,44.584721,37.104156,,,
541,0,140.732544,-75.925980,10.825711,38.408112,-20.634129,60.861778,92.759171,-129.965637,16.007132,-9.322676,21.460613,57.102089,-36.124695,44.563572,37.046810,,,
542,0,140.711121,-76.002350,10.772948,38.396347,-20.757233,60.821579,92.716949,-130.067902,15.870644,-9.337519,21.399370,57.053368,-36.057983,44.490211,37.073772,,,
543,0,140.728912,-76.058838,10.726320,38.392395,-20.809074,60.751190,92.764870,-130.101990,15.804068,-9.299046,21.354160,57.026577,-35.998081,44.434731,37.091381,,,
544,0,140.714859,-76.139000,10.663341,38.466305,-20.861526,60.727371,92.761047,-130.158813,15.860431,-9.272820,21.320047,56.998348,-35.616234,44.288227,37.346474,,,
545,0,140.706512,-76.191071,10.576270,38.516914,-20.994408,60.729435,92.898552,-130.332321,15.807531,-9.244839,21.249651,56.993008,-36.072399,43.965210,37.232735,,,
546,0,140.751266,-76.275581,10.530915,38.489857,-20.997948,60.650372,92.938904,-130.323807,15.741272,-9.151856,21.264708,56.942341,-35.614300,44.183586,37.290604,,,
547,0,140.721268,-76.358719,10.522050,38.458225,-21.027569,60.622223,92.812317,-130.380768,15.771663,-9.150776,21.218052,56.908348,-35.972832,43.891468,37.212173,,,
548,0,140.770676,-76.399818,10.518569,38.578411,-21.017210,60.694622,92.902954,-130.431061,15.782429,-9.145714,21.218414,56.912739,-35.971687,43.891842,37.212887,,,
549,0,140.770218,-76.399353,10.518228,38.615105,-21.003454,60.714069,92.740005,-130.378571,15.797201,-9.102087,21.213011,56.917564,-35.557167,44.075573,37.469482,,,
550,0,140.718994,-76.440796,10.451080,38.566887,-20.949686,60.652107,92.812088,-130.385574,15.768208,-9.121058,21.256964,56.918087,-36.030296,43.939217,37.243713,,,
551,0,140.986313,-76.480919,10.608250,38.562565,-20.953363,60.662292,92.841835,-130.400192,15.776101,-9.127504,21.303497,56.911846,-35.647602,44.269836,37.312168,,,
552,0,141.098923,-76.474648,10.663383,38.528095,-20.924152,60.682720,92.431412,-130.298264,15.762130,-9.172579,21.350580,56.940296,-35.659786,44.295578,37.329113,,,
553,0,140.894638,-76.454041,10.646832,38.492264,-20.864876,60.739914,92.427803,-130.312881,15.750175,-9.153605,21.400736,56.988861,-35.648937,44.367786,37.370270,,,
554,0,140.794449,-76.403130,10.549976,38.477417,-20.784750,60.774361,92.492126,-130.360092,15.786097,-9.154769,21.520578,57.030228,-35.664501,44.421043,37.400997,,,
555,0,140.592163,-76.370453,10.423388,38.849270,-20.714001,60.946991,92.370079,-130.242813,15.822146,-9.173231,21.614475,57.048271,-35.694248,44.519619,37.410793,,,
556,0,140.419189,-76.341286,10.298852,38.823471,-20.676352,60.953213,92.336090,-130.215851,15.817707,-9.215856,21.637474,57.084126,-35.701561,44.561268,37.439587,,,
557,0,140.351685,-76.301300,10.200991,38.786297,-20.635983,60.985161,92.276512,-130.172943,15.786253,-9.176337,21.706533,57.093647,-35.658363,44.635036,37.456196,,,
558,0,140.318512,-76.333061,10.129195,38.760754,-20.634447,60.933609,92.421356,-130.262192,15.828207,-9.184031,21.727129,57.097919,-35.611382,44.688095,37.479092,,,
559,0,140.296265,-76.375801,10.086459,38.673481,-20.626791,60.852448,92.593712,-130.294373,15.840208,-9.158012,21.776854,57.119240,-35.684837,44.657337,37.460163,,,
560,0,140.250092,-76.391373,9.986182,38.634312,-20.661381,60.810574,92.377800,-130.341064,15.795348,-9.127446,21.779438,57.125465,-35.677238,44.696087,37.471878,,,
561,0,140.254868,-76.422440,9.923794,38.570900,-20.665203,60.781040,92.278969,-130.351028,15.733043,-9.079937,21.752726,57.107689,-35.587547,44.733643,37.474205,,,
562,0,140.244858,-76.493538,9.846316,38.590050,-20.635786,60.746876,92.376595,-130.365250,15.691236,-9.138372,21.705648,57.101234,-35.568512,44.697311,37.474403,,,
563,0,140.234055,-76.548096,9.761117,38.562183,-20.714014,60.678879,92.355507,-130.382446,15.660187,-9.107111,21.664915,57.076111,-35.562424,44.696537,37.462460,,,
564,0,140.217834,-76.557663,9.676868,38.537930,-20.714931,60.646553,92.323311,-130.426285,15.549687,-9.141449,21.636435,57.046902,-35.584621,44.662777,37.436405,,,
565,0,140.195770,-76.619164,9.601756,38.484760,-20.801874,60.604649,92.086639,-130.406509,15.454432,-9.116689,21.616179,57.037910,-35.599056,44.608650,37.413437,,,
566,0,140.168228,-76.639946,9.514696,38.505596,-20.808540,60.601578,92.073555,-130.451538,15.427555,-9.153899,21.574045,57.032574,-35.599548,44.608284,37.418800,,,
567,0,140.143234,-76.665863,9.463409,38.457737,-20.877586,60.551537,92.052788,-130.512985,15.393373,-9.172427,21.528950,57.004852,-35.668842,44.545547,37.394482,,,
568,0,140.107620,-76.704224,9.409018,38.471291,-20.917057,60.525002,92.048500,-130.546524,15.285256,-9.209021,21.522072,56.990990,-35.674473,44.516979,37.388142,,,
569,0,140.069473,-76.711105,9.371434,38.421219,-20.891237,60.529938,91.956764,-130.496994,15.273643,-9.220825,21.536465,56.984535,-35.706081,44.541355,37.407715,,,
570,0,140.043671,-76.718979,9.328855,38.412067,-20.891706,60.554485,91.957840,-130.492767,15.274372,-9.250593,21.537172,56.981514,-35.699432,44.529049,37.413719,,,
571,0,139.987564,-76.756783,9.306524,38.386799,-20.864592,60.535477,91.765038,-130.516312,15.263311,-9.220433,21.589830,57.026451,-35.716179,44.517185,37.405659,,,
572,0,139.946625,-76.810165,9.257096,38.431160,-20.857138,60.536697,91.734383,-130.458984,15.201407,-9.176680,21.595232,57.028870,-35.668320,44.599293,37.422440,,,
573,0,139.943253,-76.814133,9.240406,38.461136,-20.795630,60.555138,91.732246,-130.467438,15.289251,-9.217036,21.688267,57.068863,-35.645599,44.627251,37.444107,,,
574,0,139.898453,-76.786194,9.157258,38.488293,-20.699223,60.579727,91.724365,-130.427597,15.286819,-9.159483,21.724644,57.082863,-35.590443,44.684181,37.453369,,,
575,0,139.838028,-76.789429,9.096798,38.508915,-20.699394,60.578629,91.505714,-130.446747,15.302316,-9.110928,21.782164,57.079884,-35.599503,44.757111,37.451832,,,
576,0,139.807373,-76.852882,8.990908,38.528954,-20.660290,60.576805,91.606949,-130.399521,15.272723,-9.076538,21.819933,57.088886,-35.579926,44.803234,37.485214,,,
577,0,139.778046,-76.849037,8.921742,38.485027,-20.687241,60.555050,91.474022,-130.499496,15.190131,-9.105493,21.854765,57.100208,-35.545002,44.872658,37.498180,,,
578,0,139.721329,-76.885742,8.894557,38.482567,-20.688784,60.553738,91.459610,-130.477005,15.270890,-9.084355,21.863678,57.093102,-35.535015,44.869591,37.492229,,,
579,0,139.685730,-76.919083,8.832979,38.462017,-20.671652,60.513885,91.201004,-130.511200,15.171028,-9.104999,21.874449,57.082085,-35.470139,44.926758,37.518421,,,
580,0,139.638184,-76.939163,8.775315,38.461742,-20.661436,60.505531,91.178963,-130.521378,15.143838,-9.068330,21.898619,57.114555,-35.494068,44.916492,37.534554,,,
581,0,139.588455,-76.982651,8.741004,38.435871,-20.709949,60.491665,91.114204,-130.479660,15.102272,-9.092461,21.885132,57.119122,-35.542290,44.903316,37.524643,,,
582,0,139.565491,-76.982300,8.705841,38.412861,-20.749664,60.506927,91.093948,-130.489365,15.075706,-9.102776,21.881641,57.098152,-35.576660,44.908077,37.475960,,,
583,0,139.529404,-76.989922,8.632670,38.396107,-20.748924,60.485626,91.101662,-130.529388,15.077504,-9.105468,21.895102,57.154045,-35.558865,44.917686,37.502388,,,
584,0,139.521591,-77.028748,8.557694,38.437256,-20.745686,60.505768,90.992844,-130.532196,15.107016,-9.099121,21.882174,57.174927,-35.562119,44.919353,37.490875,,,
585,0,139.502319,-77.069061,8.516121,38.390545,-20.778448,60.433994,90.985527,-130.492142,15.105430,-8.962864,21.857479,57.233334,-35.563168,44.859974,37.491791,,,
586,0,139.491257,-77.087059,8.444157,38.414692,-20.797981,60.445320,90.941536,-130.520889,14.985794,-9.114534,21.855536,57.102139,-35.609184,44.832542,37.465286,,,
587,0,139.495987,-77.101242,8.350211,38.427635,-20.846960,60.406357,90.662285,-130.519241,14.994957,-9.096615,21.818489,57.122723,-35.596962,44.787498,37.446381,,,
588,0,139.466415,-77.132126,8.268272,38.442245,-20.872330,60.374767,91.007889,-130.586548,14.965753,-9.102795,21.797974,57.095097,-35.636070,44.735332,37.434753,,,
589,0,139.457870,-77.172470,8.180235,38.464794,-20.950195,60.373699,90.886795,-130.730194,14.951644,-9.140201,21.750948,57.069599,-35.601093,44.693108,37.410145,,,
590,0,139.470367,-77.221268,8.155657,38.428070,-20.982466,60.330162,90.885529,-130.847824,14.895047,-8.998479,21.666916,57.185272,-35.604012,44.716431,37.422138,,,
591,0,139.481323,-77.274628,8.121742,38.432774,-21.003784,60.289497,91.017326,-130.918243,14.889287,-9.047449,21.612211,57.170444,-35.631329,44.723934,37.411034,,,
592,0,139.478622,-77.278023,8.099217,38.429039,-21.009695,60.288589,90.985825,-130.892075,14.857637,-9.028141,21.605593,57.165279,-35.600098,44.726944,37.421444,,,
593,0,139.483063,-77.310051,8.112195,38.445354,-21.020573,60.293716,90.897552,-130.851471,14.839779,-9.078350,21.567453,57.186462,-35.601696,44.712925,37.409550,,,
594,0,139.498398,-77.306862,8.107852,38.470169,-21.033297,60.326435,90.945023,-130.811234,14.879900,-9.050349,21.574764,57.194401,-35.549747,44.743206,37.432789,,,
595,0,139.482666,-77.276886,8.121330,38.445843,-20.963055,60.290283,90.932961,-130.732346,14.875885,-9.114467,21.690594,57.042576,-35.557583,44.734447,37.430344,,,
596,0,139.464890,-77.265060,8.119129,38.420971,-20.964720,60.307842,90.860756,-130.708359,14.916835,-9.115685,21.732544,57.091934,-35.559299,44.744026,37.472805,,,
597,0,139.447418,-77.255341,8.121549,38.418594,-20.969078,60.325150,90.789024,-130.776947,14.980231,-9.104992,21.780943,57.109989,-35.624043,44.795353,37.454559,,,
598,0,139.406372,-77.188942,8.102871,38.432262,-20.913317,60.371777,90.812607,-130.662811,14.993298,-9.115240,21.836809,57.130604,-35.574181,44.829529,37.493023,,,
599,0,139.431244,-77.165909,8.128695,38.445381,-20.855734,60.414734,90.807205,-130.654419,15.044448,-9.074652,21.857449,57.182922,-35.567791,44.860722,37.517567,,,
600,0,139.412949,-77.123825,8.144518,38.442059,-20.819134,60.426922,90.743942,-130.604553,15.010550,-9.075329,21.911636,57.193535,-35.595306,44.910793,37.470173,,,
601,0,139.466125,-77.089577,8.140832,38.508987,-20.747814,60.453766,90.855309,-130.518143,15.062925,-9.003058,21.987499,57.214291,-35.551441,44.943783,37.490601,,,
602,0,139.478882,-77.048050,8.136093,38.511154,-20.747295,60.461674,91.001030,-130.490646,15.088305,-9.060597,21.955673,57.217789,-35.557919,44.939644,37.482422,,,
603,0,139.493317,-76.998833,8.135814,38.542511,-20.733583,60.487701,90.982391,-130.474060,15.163948,-9.048999,21.981092,57.202641,-35.538151,44.950619,37.479668,,,
604,0,139.508224,-77.004883,8.129911,38.619919,-20.695202,60.534981,91.057503,-130.582932,15.141698,-9.007773,22.022013,57.193333,-35.544834,44.954834,37.453690,,,
605,0,139.537872,-77.012360,8.111446,38.570889,-20.715111,60.482746,91.003006,-130.568268,15.111982,-9.011951,21.985933,57.224995,-35.555012,44.940697,37.503082,,,
606,0,139.534622,-77.002357,8.091098,38.493786,-20.773495,60.439438,91.079033,-130.544678,15.046760,-8.923886,21.947124,57.363449,-35.540497,44.954655,37.494602,,,
607,0,139.556320,-76.978958,8.068163,38.565529,-20.737795,60.489883,91.046432,-130.521118,15.045535,-8.980987,21.986843,57.195934,-35.493397,44.985668,37.499912,,,
608,0,139.540649,-76.957329,8.072334,38.509823,-20.805458,60.398422,91.171234,-130.556778,15.035279,-9.022703,21.963507,57.209049,-35.511806,44.970169,37.516235,,,
609,0,139.512619,-76.935333,8.068745,38.518154,-20.835403,60.431751,91.080688,-130.506104,15.025834,-9.063271,21.951883,57.204803,-35.540314,44.975780,37.489536,,,
610,0,139.515610,-76.939423,8.075912,38.484337,-20.843739,60.409813,90.977921,-130.537033,14.955842,-9.086308,21.960415,57.196053,-35.588367,44.949799,37.498573,,,
611,0,139.526245,-76.905067,8.139003,38.445168,-20.761942,60.420349,90.864883,-130.376114,14.934811,-9.085635,21.956654,57.177544,-35.598869,45.028645,37.470104,,,
612,0,139.526932,-76.891388,8.189669,38.445156,-20.761415,60.421238,90.984795,-130.427155,15.006289,-9.116895,21.974026,57.180775,-35.614143,45.036739,37.493729,,,
613,0,139.541260,-76.846886,8.245236,38.468674,-20.650185,60.456005,90.934654,-130.381729,15.083019,-9.066144,22.083469,57.220417,-35.585030,45.088566,37.462711,,,
614,0,139.578094,-76.779961,8.255661,38.490852,-20.593344,60.495491,91.032806,-130.317734,15.080686,-9.063609,22.149067,57.247154,-35.593552,45.171619,37.488937,,,
615,0,139.554276,-76.726891,8.243422,38.548389,-20.473999,60.554985,90.928291,-130.267120,15.122525,-9.062970,22.229088,57.242619,-35.561947,45.193726,37.490837,,,
616,0,139.520157,-76.681351,8.236378,38.592422,-20.433565,60.551723,90.959564,-130.213104,15.232504,-8.990757,22.306721,57.273598,-35.570381,45.228420,37.507156,,,
617,0,139.529373,-76.613533,8.194591,38.551289,-20.371433,60.553535,90.799942,-130.123413,15.179983,-8.987489,22.350193,57.271008,-35.517906,45.279442,37.485687,,,
618,0,139.540558,-76.602394,8.168617,38.572334,-20.351147,60.561192,90.801727,-130.116348,15.185858,-8.917513,22.411432,57.298264,-35.547253,45.286667,37.510849,,,
619,0,139.540497,-76.594772,8.126315,38.577843,-20.342297,60.538658,90.888977,-130.138107,15.186885,-8.888386,22.409760,57.259552,-35.524574,45.315189,37.499477,,,
620,0,139.537506,-76.600571,8.110103,38.619263,-20.367058,60.534729,90.888542,-130.132507,15.192661,-8.922693,22.363157,57.290291,-35.540379,45.282433,37.483170,,,
621,0,139.526779,-76.606407,8.072074,38.561710,-20.403324,60.547459,91.138275,-130.202011,15.123985,-8.910147,22.341373,57.266949,-35.540791,45.281544,37.494907,,,
622,0,139.503113,-76.615463,8.044513,38.553108,-20.439835,60.509930,90.882812,-130.184143,15.109558,-8.992804,22.280247,57.272167,-35.579784,45.215137,37.461933,,,
623,0,139.484085,-76.613426,8.033216,38.462772,-20.594643,60.442978,90.970848,-130.140091,14.967885,-8.880848,22.191317,57.398079,-35.564186,45.177998,37.509529,,,
624,0,139.500107,-76.667091,8.007153,38.505833,-20.578657,60.459442,90.920464,-130.211304,14.825116,-9.062877,22.175858,57.226006,-35.607296,45.148174,37.485283,,,
625,0,139.531189,-76.660034,7.945087,38.434097,-20.647289,60.426430,90.966278,-130.191620,14.848195,-8.868281,22.096893,57.401089,-35.600784,45.132263,37.471138,,,
626,0,139.512039,-76.722763,7.947302,38.484810,-20.681297,60.433598,91.101448,-130.292740,14.870550,-8.941753,22.066483,57.365025,-35.615185,45.085350,37.482986,,,
627,0,139.531326,-76.660431,7.945129,38.420975,-20.688498,60.413399,91.192413,-130.309433,14.854775,-9.079252,22.057161,57.266365,-35.623688,45.069160,37.484093,,,
628,0,139.546600,-76.650909,7.968953,38.479977,-20.680489,60.427162,91.209312,-130.306473,14.971292,-9.085862,22.082611,57.206669,-35.610146,45.067200,37.453373,,,
629,0,139.552307,-76.634621,7.956334,38.516834,-20.661743,60.480701,91.243713,-130.369934,15.028039,-9.149934,22.124680,57.193279,-35.567104,45.077019,37.466499,,,
630,0,139.528519,-76.604607,7.973269,38.513714,-20.637905,60.494984,91.275642,-130.387253,15.034855,-9.161544,22.138163,57.188442,-35.585670,45.115883,37.473778,,,
631,0,139.549210,-76.561562,7.943673,38.508343,-20.654661,60.494011,91.268349,-130.348038,15.032581,-9.138234,22.156679,57.208828,-35.566910,45.147167,37.464405,,,
632,0,139.525711,-76.551414,7.933743,38.526127,-20.657036,60.545094,91.226837,-130.331818,15.022146,-9.135778,22.141119,57.212555,-35.590187,45.134998,37.464222,,,
633,0,139.545166,-76.527733,7.903590,38.521095,-20.723118,60.538685,91.293785,-130.282822,15.039443,-9.144539,22.149548,57.190475,-35.566326,45.152016,37.468796,,,
634,0,139.538467,-76.513901,7.870126,38.467289,-20.918074,60.517776,91.106438,-130.284637,14.948126,-9.139902,22.144341,57.193401,-35.570446,45.145622,37.474548,,,
635,0,139.568314,-76.524696,7.914668,38.431316,-20.917435,60.507404,91.142288,-130.177933,14.907530,-9.177847,22.126547,57.197273,-35.525860,45.064896,37.646641,,,
636,0,139.556580,-76.517227,7.913951,38.478161,-20.863722,60.549984,91.124001,-130.306870,14.872232,-9.192631,22.113186,57.210396,-35.672146,45.052322,37.560947,,,
637,0,139.576462,-76.516014,7.932545,38.577301,-20.597895,60.534515,91.307396,-130.326294,14.902401,-9.199729,22.072187,57.220695,-35.784878,45.013966,37.517029,,,
638,0,139.576431,-76.516266,7.932742,38.577301,-20.597027,60.533497,91.351471,-130.297043,14.933226,-9.215821,22.091330,57.227142,-35.765728,45.073643,37.496479,,,
639,0,139.540192,-76.501823,7.913789,38.562386,-20.597435,60.505749,91.368637,-130.295410,14.912729,-9.187210,22.106588,57.204803,-35.793823,45.049103,37.496975,,,
640,0,139.570557,-76.467186,7.890231,38.554836,-20.594204,60.524830,91.424591,-130.305542,14.944957,-9.197962,22.103027,57.208736,-35.795685,45.061451,37.468433,,,
641,0,139.568985,-76.439423,7.891006,38.560787,-20.578300,60.546326,91.214630,-130.262009,14.943040,-9.200462,22.126091,57.232498,-35.819191,45.048195,37.500790,,,
642,0,139.550598,-76.413513,7.892283,38.592899,-20.591475,60.559078,91.302948,-130.190460,15.012088,-9.154920,22.132149,57.241974,-35.816685,45.043224,37.496563,,,
643,0,139.566788,-76.400673,7.888037,38.592369,-20.589565,60.557083,91.508888,-130.182297,15.020650,-9.154192,22.134144,57.223942,-35.886871,45.000854,37.564953,,,
644,0,139.563370,-76.415627,7.837695,38.616879,-20.545326,60.550282,91.458221,-130.224396,15.122250,-9.150655,22.172522,57.198505,-35.819973,45.010429,37.529804,,,
645,0,139.563141,-76.416405,7.870512,38.614082,-20.545317,60.548328,91.349365,-130.190796,15.082408,-9.158203,22.175865,57.211800,-35.837334,45.044167,37.479816,,,
646,0,139.568344,-76.420822,7.855480,38.599358,-20.560011,60.532143,91.412010,-130.128036,15.010427,-9.144657,22.159271,57.232582,-35.867428,45.048389,37.481564,,,
647,0,139.583420,-76.417809,7.859982,38.598969,-20.578115,60.489620,91.436241,-130.165237,14.986530,-9.138287,22.152861,57.209412,-35.883121,45.049835,37.456600,,,
648,0,139.587997,-76.405098,7.878159,38.618076,-20.566103,60.508839,91.345467,-130.119904,14.972173,-9.154497,22.137413,57.202908,-35.891037,45.049400,37.440926,,,
649,0,139.584488,-76.420868,7.859756,38.574997,-20.587788,60.520908,91.215553,-130.146545,14.998044,-9.162553,22.140682,57.175812,-35.888695,45.053680,37.453468,,,
650,0,139.565475,-76.420044,7.877853,38.533829,-20.606316,60.498901,91.379837,-130.127060,14.948089,-9.167719,22.173584,57.191875,-35.870323,45.091751,37.454945,,,
651,0,139.564514,-76.418716,7.877067,38.549080,-20.576857,60.489273,91.250839,-130.198074,14.969852,-9.151196,22.178791,57.185028,-35.878525,45.075733,37.455032,,,
652,0,139.550598,-76.422569,7.860877,38.549381,-20.576355,60.490112,91.408730,-130.150909,14.980947,-9.134425,22.176876,57.217175,-35.897533,45.079464,37.440609,,,
653,0,139.545685,-76.427757,7.872187,38.569366,-20.575901,60.535172,91.362823,-130.177292,14.953160,-9.145821,22.173098,57.226929,-35.898674,45.094872,37.454098,,,
654,0,139.547958,-76.429398,7.878147,38.616405,-20.562359,60.502048,91.396446,-130.222626,15.080909,-9.139069,22.210732,57.212902,-35.900078,45.142521,37.449043,,,
655,0,139.572968,-76.401382,7.911306,38.617531,-20.565275,60.508347,91.235481,-130.142517,15.116763,-9.133643,22.183292,57.177719,-35.902534,45.103741,37.444637,,,
656,0,139.582565,-76.419357,7.951240,38.616741,-20.565105,60.508175,91.180252,-130.141891,15.077232,-9.124852,22.209789,57.179920,-35.897972,45.155624,37.445892,,,
657,0,139.545807,-76.471352,7.958274,38.612965,-20.528610,60.551235,91.171295,-130.130478,15.082407,-9.131458,22.244347,57.190777,-35.885307,45.135418,37.437462,,,
658,0,139.562225,-76.471397,7.963720,38.579853,-20.513971,60.547646,91.128639,-130.172531,15.042783,-9.115952,22.246548,57.205345,-35.901165,45.156853,37.445229,,,
659,0,139.561050,-76.472145,7.995991,38.574715,-20.471478,60.541492,91.065620,-130.123550,15.011318,-9.129185,22.266602,57.237617,-35.876930,45.129181,37.440521,,,
660,0,139.557251,-76.468346,7.983436,38.611397,-20.499403,60.538712,91.175034,-130.137314,15.078518,-9.153579,22.258564,57.217014,-35.879910,45.155193,37.445618,,,
661,0,139.567657,-76.478088,7.982125,38.589783,-20.509485,60.494164,91.235710,-130.136566,15.121980,-9.113820,22.200781,57.194843,-35.905117,45.139202,37.444798,,,
662,0,139.581375,-76.486496,8.005041,38.618656,-20.502192,60.519009,91.394226,-130.205582,15.162566,-9.125091,22.189600,57.185406,-35.874657,45.095631,37.450863,,,
663,0,139.564484,-76.476288,8.003461,38.573120,-20.585342,60.519581,91.402039,-130.241806,15.167017,-9.133901,22.191927,57.211552,-35.882538,44.889523,37.464497,,,
664,0,139.580719,-76.494019,7.995399,38.552753,-20.591724,60.516502,91.568192,-130.565094,15.259845,-9.142695,22.149746,57.171154,-35.903767,45.109116,37.436176,,,
665,0,139.585815,-76.499786,8.013388,38.568474,-20.610857,60.505104,91.772141,-131.145294,15.429624,-9.144445,22.149611,57.170200,-35.639904,45.359226,37.449829,,,
666,0,139.569992,-76.530342,8.021095,38.562836,-20.586748,60.480621,91.087097,-130.351501,15.029330,-9.123452,22.172897,57.181843,-35.938843,45.083748,37.405693,,,
667,0,139.592957,-76.539909,8.046158,38.586681,-20.596786,60.523090,91.086235,-130.356628,15.024697,-9.130461,22.140915,57.170467,-35.962009,45.056339,37.410320,,,
668,0,139.593018,-76.539848,8.046515,38.589684,-20.590143,60.506107,91.087517,-130.348892,15.031671,-9.127828,22.123901,57.191921,-35.939137,45.069481,37.428299,,,
669,0,139.580353,-76.549095,8.062497,38.591988,-20.566557,60.513535,91.319412,-130.430954,15.064987,-9.101249,21.911016,57.209118,-35.904213,45.088287,37.409599,,,
670,0,139.579849,-76.592094,8.100370,38.628384,-20.537020,60.533730,91.126480,-130.445389,15.133290,-9.159730,22.156704,57.129570,-35.908871,45.085522,37.402843,,,
671,0,139.820267,-76.454155,8.324816,38.603092,-20.498461,60.569473,91.126648,-130.444321,15.134272,-8.960454,22.382627,57.153805,-35.925781,45.127113,37.418564,,,
672,0,139.811142,-76.471420,8.340717,38.882984,-20.257372,60.608974,91.127151,-130.441360,15.136933,-9.036296,22.329409,57.172272,-35.903778,45.104786,37.409027,,,
673,0,139.805496,-76.485794,8.384543,38.702347,-20.399326,60.571724,90.991432,-130.404953,15.285955,-9.123481,22.259241,57.160416,-35.929844,45.126499,37.421638,,,
674,0,139.830551,-76.494255,8.436005,38.680824,-20.414495,60.566338,90.990822,-130.408600,15.282647,-9.125436,22.278547,57.156502,-35.921467,45.155483,37.407219,,,
675,0,139.838608,-76.489113,8.452165,38.652428,-20.387825,60.561211,90.937904,-130.377197,15.335834,-9.114771,22.272175,57.164940,-35.939476,45.154915,37.419102,,,
676,0,139.854980,-76.472015,8.507709,38.658264,-20.372253,60.584408,90.938721,-130.372375,15.340183,-9.093910,22.290476,57.179413,-35.957878,45.169128,37.447929,,,
677,0,139.856094,-76.447502,8.598645,38.705700,-20.467403,60.619858,90.938171,-130.320175,15.446969,-9.091696,22.302303,57.198219,-35.926952,45.178493,37.458248,,,
678,0,139.872772,-76.454109,8.624374,38.805859,-20.657749,60.675915,91.063766,-130.395004,15.476997,-9.103703,22.322186,57.217480,-35.937256,45.197472,37.451813,,,
679,0,139.921783,-76.442871,8.667084,38.708061,-20.329294,60.635490,91.069122,-129.863251,15.610507,-9.086945,22.336571,57.219028,-35.929199,45.218681,37.461151,,,
680,0,139.924820,-76.477104,8.730227,38.721283,-20.317524,60.638592,92.426414,-130.106049,15.569809,-9.077637,22.370218,57.222935,-35.915051,45.242023,37.463642,,,
681,0,139.958466,-76.486084,8.809594,38.713482,-20.268080,60.677818,92.079323,-130.425781,15.724538,-9.075052,22.381863,57.243755,-35.912777,45.250027,37.464161,,,
682,0,139.975983,-76.494194,8.850673,38.731831,-20.237877,60.674408,91.477257,-130.147415,15.629321,-9.038668,22.430172,57.228638,-35.900166,45.257431,37.443634,,,
683,0,139.984634,-76.485825,8.893676,38.773403,-20.203844,60.689556,91.511238,-130.217529,15.691433,-9.040267,22.468390,57.227783,-35.873642,45.276211,37.453625,,,
684,0,139.988251,-76.497429,8.940016,38.786705,-20.171568,60.696415,91.451225,-130.230026,15.779038,-9.020948,22.478638,57.238335,-35.874355,45.269447,37.452641,,,
685,0,140.017365,-76.510902,8.974140,38.792919,-20.163338,60.696896,91.417938,-130.197540,15.835701,-9.019835,22.516943,57.270679,-35.860741,45.286877,37.433155,,,
686,0,140.019638,-76.484146,8.998139,38.781288,-20.141571,60.697529,91.527130,-130.197159,15.948439,-9.005724,22.522705,57.230251,-35.874012,45.297951,37.436722,,,
687,0,140.024445,-76.482880,9.047974,38.781574,-20.117289,60.740738,91.566574,-130.285721,15.996264,-8.996762,22.535776,57.239086,-35.883472,45.367447,37.449512,,,
688,0,140.021408,-76.515945,9.114002,38.821415,-20.044983,60.733643,91.500565,-130.273666,16.092825,-8.989999,22.546177,57.257835,-35.880646,45.367638,37.435982,,,
689,0,140.009079,-76.544357,9.189550,38.800743,-20.063013,60.737911,91.506401,-130.281570,16.075661,-8.987496,22.613655,57.274139,-35.876240,45.377499,37.473061,,,
690,0,140.049072,-76.580139,9.213086,38.817528,-20.036394,60.754219,91.397186,-130.216339,16.056526,-8.997089,22.577011,57.252472,-35.881111,45.381676,37.427631,,,
691,0,140.036163,-76.555969,9.233459,38.816265,-20.033991,60.754105,91.589188,-130.225677,16.087923,-8.980868,22.612251,57.225857,-35.863720,45.401543,37.413261,,,
692,0,139.699173,-76.713982,9.096428,38.830334,-20.030565,60.766605,91.524826,-130.227158,16.148249,-8.982350,22.642456,57.229305,-35.842667,45.407513,37.414219,,,
693,0,139.961746,-76.601738,9.241590,38.825432,-20.042822,60.737099,91.471123,-130.233841,16.168377,-8.960285,22.635719,57.248211,-35.842632,45.423477,37.436184,,,
694,0,139.700729,-76.689705,9.103196,38.811180,-19.983543,60.763733,91.482353,-130.232773,16.227715,-8.974045,22.645832,57.245949,-35.836006,45.418682,37.425117,,,
695,0,139.686539,-76.738716,9.129243,38.681572,-19.764683,60.707298,91.420822,-130.189148,16.276295,-8.972056,22.643633,57.237198,-35.839901,45.414799,37.418968,,,
696,0,139.689713,-76.740982,9.137350,38.718842,-19.851946,60.720131,91.414520,-130.197952,16.274443,-8.981803,22.637058,57.244389,-35.868969,45.389061,37.431702,,,
697,0,139.677399,-76.758232,9.202642,38.800098,-20.028301,60.739098,91.523300,-130.262054,16.304781,-8.984770,22.638609,57.271954,-35.676781,45.585449,37.524368,,,
698,0,139.699036,-76.757622,9.236220,38.840347,-20.137415,60.770359,91.394440,-130.307495,16.326542,-8.982822,22.671843,57.253700,-35.786839,45.489674,37.462299,,,
699,0,139.693909,-76.820656,9.308076,38.809090,-19.959906,60.799484,91.338951,-130.254730,16.378305,-8.819631,22.838570,57.314873,-35.861481,45.397015,37.458675,,,
700,0,139.662064,-76.815926,9.328835,38.861080,-20.138996,60.834789,91.282272,-130.297241,16.416090,-8.793606,22.846817,57.345753,-35.876080,45.396755,37.453327,,,
701,0,139.664963,-76.823395,9.368733,38.796722,-19.931292,60.818489,91.224564,-130.250229,16.463398,-8.873150,22.759331,57.310551,-35.867218,45.384651,37.444283,,,
702,0,139.651764,-76.831306,9.394245,38.787079,-19.896727,60.841702,91.249069,-130.347885,16.519167,-8.971359,22.717777,57.296234,-35.898705,45.389545,37.432167,,,
703,0,139.650757,-76.836037,9.449496,38.792721,-19.892256,60.844498,91.431358,-130.481735,16.561966,-8.999343,22.706301,57.288532,-35.895084,45.428722,37.438221,,,
704,0,139.916855,-76.776665,9.646548,38.839310,-19.866526,60.847420,91.669548,-130.700928,16.616600,-8.982046,22.732063,57.277184,-35.900707,45.436024,37.442627,,,
705,0,139.897812,-76.793625,9.633505,38.846260,-19.865788,60.865265,91.860008,-130.891479,16.626064,-8.956319,22.739910,57.261024,-35.875858,45.465260,37.439068,,,
706,0,139.912506,-76.805977,9.627295,38.823143,-19.839865,60.849594,92.115242,-131.068115,16.609470,-8.968114,22.719946,57.251774,-35.877876,45.450195,37.441692,,,
707,0,139.656693,-76.941193,9.523651,38.833790,-19.866524,60.841625,92.305305,-131.341797,16.697901,-8.973639,22.707521,57.238796,-35.905304,45.422222,37.431454,,,
708,0,139.883377,-76.866241,9.644409,38.981155,-19.676197,60.888268,92.775436,-131.676346,16.767008,-8.972633,22.680407,57.243591,-35.892994,45.418892,37.442436,,,
709,0,139.599091,-77.022942,9.488143,38.977631,-19.698820,60.916027,92.774559,-131.776566,16.739374,-8.956714,22.641344,57.242023,-35.890205,45.405010,37.434055,,,
710,0,139.866974,-76.919464,9.640826,38.953381,-19.762520,60.873806,92.698624,-131.651901,16.675348,-8.989097,22.645420,57.239777,-35.875576,45.415657,37.432953,,,
711,0,139.601547,-77.055260,9.495587,38.938316,-19.786612,60.881584,92.819382,-131.842789,16.675690,-9.006683,22.633045,57.233562,-35.885136,45.395313,37.415199,,,
712,0,139.839722,-76.939102,9.654463,38.920681,-19.801720,60.888920,92.849571,-131.929062,16.666075,-9.037159,22.594898,57.239788,-35.903927,45.358669,37.413849,,,
713,0,139.823166,-77.016060,9.674352,38.899666,-19.809238,60.883698,92.632553,-131.808212,16.698601,-9.017532,22.573374,57.221077,-35.895035,45.343796,37.402401,,,
714,0,139.841187,-77.040276,9.672012,38.919067,-19.832479,60.884743,92.475906,-131.761780,16.639936,-9.031331,22.570230,57.239372,-35.917942,45.323437,37.411354,,,
715,0,139.801575,-77.072304,9.635852,39.111771,-19.731510,60.976376,92.769264,-131.912140,16.551456,-9.042279,22.560680,57.235771,-35.931995,45.292706,37.423965,,,
716,0,139.758011,-77.125473,9.636162,39.062393,-19.765774,60.971409,92.650185,-131.900909,16.677094,-9.032392,22.560755,57.252361,-35.912476,45.314140,37.434544,,,
717,0,139.767563,-77.124466,9.641586,39.056194,-19.756805,60.973354,92.548622,-131.761932,16.549526,-9.042219,22.540178,57.264423,-35.925579,45.301800,37.426655,,,
718,0,139.756653,-77.133148,9.632994,39.071480,-19.765310,60.975170,92.274818,-131.665131,16.533159,-9.041407,22.549484,57.264668,-35.928474,45.287338,37.430813,,,
719,0,139.778992,-77.196861,9.605711,39.107281,-19.792870,60.966446,92.064171,-131.483673,16.331110,-9.021498,22.539499,57.249371,-35.907242,45.290520,37.444027,,,
720,0,139.744400,-77.238251,9.566179,39.129105,-19.769833,60.955662,91.875954,-131.350677,16.309729,-8.993383,22.555387,57.256062,-35.913654,45.277622,37.433712,,,
