Trajectories
100
,,sano:Uln,,,sano:MPH3,,,sano:Rad,,,sano:PIP3,,,sano:DIP3,,,sano:DIP4,,,
Frame,Sub Frame,X,Y,Z,X,Y,Z,X,Y,Z,X,Y,Z,X,Y,Z,X,Y,Z
,,mm,mm,mm,mm,mm,mm,mm,mm,mm,mm,mm,mm,mm,mm,mm,mm,mm,mm
1,0,157.596924,92.654633,117.804886,92.065918,196.124512,135.575333,83.440712,65.520767,119.657845,82.849205,254.116501,127.412956,80.943436,289.216156,114.455223,,,
2,0,157.629120,92.758797,117.814926,92.107903,196.252701,135.647385,83.561386,65.597290,119.711609,82.869087,254.273056,127.491043,80.969284,289.330627,114.544899,,,
3,0,157.641220,92.850990,117.791130,92.105125,196.345383,135.721344,83.639221,65.687973,119.790192,82.866501,254.412079,127.617729,80.976051,289.439453,114.662178,,,
4,0,157.678955,92.994217,117.811150,92.134438,196.425323,135.832367,83.651184,65.762650,119.906349,82.859169,254.498535,127.722458,80.996841,289.589935,114.781525,,,
5,0,157.699417,93.110992,117.865082,92.096863,196.517029,135.920364,83.732094,65.788391,119.944977,82.873146,254.601425,127.829521,80.981018,289.710815,114.918053,,,
6,0,157.730545,93.175026,117.875694,92.095657,196.642029,136.025192,83.791359,65.790649,120.011070,82.853638,254.735199,127.970215,80.967484,289.810944,115.029839,,,
7,0,157.754349,93.289818,117.910461,92.113815,196.723389,136.108124,83.854683,65.948158,120.054916,82.876556,254.842514,128.080414,80.983200,289.935974,115.157959,,,
8,0,157.746307,93.411385,117.875504,92.148270,196.887802,136.154266,83.859009,65.981918,120.093880,82.883125,254.944946,128.152664,81.023750,290.039948,115.257721,,,
9,0,157.760941,93.490143,117.871140,92.156982,196.987961,136.163010,83.945023,66.065430,120.175713,82.919724,255.091309,128.200287,81.073227,290.225037,115.276482,,,
10,0,157.760254,93.616997,117.826973,92.189972,197.127548,136.167969,84.002647,66.181274,120.273422,82.954987,255.197998,128.160995,81.116066,290.323242,115.203598,,,
11,0,157.807877,93.714897,117.815063,92.181343,197.268997,136.125900,83.995384,66.306763,120.268784,82.987129,255.322006,128.077393,81.186897,290.448486,115.093498,,,
12,0,157.806274,93.815781,117.797630,92.197517,197.428635,136.057358,83.966064,66.467674,120.260384,83.045486,255.437531,128.005936,81.277031,290.603485,114.993042,,,
13,0,157.797607,93.943901,117.755585,92.207108,197.597137,136.007843,84.000031,66.550522,120.292831,83.093292,255.616333,127.925720,81.328911,290.781403,114.877373,,,
14,0,157.813019,94.075935,117.704208,92.224190,197.716553,135.941742,83.993553,66.597641,120.311852,83.106628,255.765198,127.795998,81.321304,290.942444,114.739014,,,
15,0,157.838226,94.161751,117.668983,92.216393,197.876831,135.835327,84.029953,66.683899,120.305840,83.061806,255.887772,127.646042,81.280838,291.043549,114.508408,,,
16,0,157.856384,94.283577,117.564613,92.274338,198.024521,135.732651,84.082909,66.760239,120.332443,83.070511,255.982254,127.486008,81.268074,291.102539,114.337288,,,
17,0,157.854340,94.329407,117.488716,92.270493,198.104675,135.624542,84.107841,66.923050,120.375412,83.067238,256.109039,127.347633,81.252426,291.200104,114.183556,,,
18,0,157.861038,94.416832,117.400345,92.302589,198.191284,135.549545,84.090004,66.988937,120.394081,83.076317,256.163635,127.243073,81.293274,291.291840,114.045647,,,
19,0,157.834320,94.457855,117.357780,92.309296,198.200211,135.515167,84.110512,67.019341,120.409691,83.109673,256.194061,127.155289,81.305000,291.300110,113.951004,,,
20,0,157.836594,94.454430,117.338715,92.336830,198.217804,135.492081,84.101929,66.998901,120.424919,83.122093,256.241119,127.117188,81.324310,291.288849,113.878212,,,
21,0,157.850128,94.450279,117.323471,92.355858,198.220596,135.441147,84.098434,67.029770,120.414330,83.179771,256.226654,127.058311,81.384186,291.326660,113.812759,,,
22,0,157.841385,94.444099,117.364494,92.375427,198.233734,135.451569,84.116142,66.991859,120.442375,83.238190,256.260315,127.058449,81.459648,291.344452,113.831894,,,
23,0,157.840332,94.441643,117.396019,92.373940,198.224014,135.511612,84.116806,66.916260,120.493980,83.273315,256.237640,127.115875,81.527817,291.345093,113.881714,,,
24,0,157.829041,94.358955,117.421959,92.384697,198.204010,135.564392,84.109985,66.885437,120.510101,83.315170,256.244476,127.137032,81.593872,291.306335,113.938087,,,
25,0,157.871048,94.342140,117.453262,92.402695,198.163620,135.623459,84.109451,66.884521,120.505722,83.329262,256.198242,127.195625,81.609077,291.266357,113.953545,,,
26,0,157.885590,94.338768,117.495079,92.413422,198.142410,135.668289,84.132614,66.873917,120.534546,83.309883,256.190399,127.232300,81.551750,291.271606,113.991196,,,
27,0,157.940323,94.327766,117.477005,92.434029,198.108109,135.708344,84.200233,66.820251,120.572128,83.265709,256.151520,127.274200,81.484596,291.247498,114.010551,,,
28,0,157.996124,94.336342,117.430672,92.489777,198.164124,135.782181,84.223732,66.808929,120.604530,83.283615,256.220245,127.345711,81.485672,291.251007,114.105034,,,
29,0,158.024963,94.407494,117.388306,92.535194,198.228226,135.810089,84.290016,66.855759,120.722816,83.312553,256.229004,127.382637,81.488487,291.292725,114.129654,,,
30,0,158.063065,94.403618,117.316986,92.589256,198.249344,135.844833,84.360931,66.872276,120.754189,83.375801,256.300629,127.429184,81.537704,291.360870,114.162285,,,
31,0,158.059937,94.490738,117.288338,92.631157,198.325272,135.887299,84.384140,66.954498,120.791641,83.464729,256.344177,127.466377,81.578110,291.417816,114.178680,,,
32,0,158.094223,94.534912,117.289642,92.665718,198.359314,135.946045,84.388054,67.025803,120.789665,83.488380,256.404236,127.536652,81.653984,291.468475,114.239174,,,
33,0,158.126801,94.580185,117.304993,92.689392,198.441818,136.013046,84.443268,67.124916,120.825005,83.557190,256.498230,127.619980,81.711761,291.565948,114.315201,,,
34,0,158.144272,94.631172,117.305878,92.712044,198.470810,136.057220,84.447624,67.116951,120.838356,83.589394,256.551849,127.666382,81.759148,291.582947,114.368576,,,
35,0,158.129166,94.653908,117.309235,92.689713,198.502335,136.077850,84.459305,67.151840,120.845184,83.611694,256.571381,127.722931,81.827148,291.648682,114.487099,,,
36,0,158.117264,94.707741,117.327385,92.670517,198.523315,136.132675,84.474648,67.165924,120.839592,83.654289,256.610016,127.837318,81.867302,291.699615,114.614189,,,
37,0,158.116699,94.712372,117.363472,92.673355,198.540680,136.173843,84.444580,67.173164,120.807945,83.652092,256.650940,127.939537,81.906845,291.740753,114.727524,,,
38,0,158.072266,94.741203,117.372696,92.683594,198.569839,136.225296,84.447380,67.167557,120.817505,83.648750,256.658173,128.001541,81.888031,291.807983,114.818993,,,
39,0,158.079407,94.758217,117.408279,92.655640,198.611526,136.294006,84.448921,67.154404,120.815109,83.649940,256.687836,128.048843,81.877113,291.808868,114.877579,,,
40,0,158.060730,94.741798,117.418587,92.643555,198.589859,136.309875,84.451057,67.185547,120.849335,83.623924,256.711823,128.066925,81.850227,291.791290,114.897903,,,
41,0,158.062607,94.735619,117.456848,92.643570,198.590042,136.360504,84.435616,67.205605,120.891060,83.594482,256.740906,128.101608,81.850189,291.787964,114.906059,,,
42,0,158.078049,94.755920,117.407890,92.674698,198.608521,136.348175,84.444527,67.195930,120.931602,83.605919,256.730438,128.067139,81.822556,291.795715,114.883484,,,
43,0,158.082275,94.722267,117.357651,92.676308,198.618393,136.326233,84.456047,67.209854,120.918755,83.605240,256.730774,128.057938,81.812904,291.778229,114.843285,,,
44,0,158.081238,94.732643,117.311867,92.691154,198.625046,136.316238,84.460007,67.186569,120.907326,83.611107,256.704712,128.050293,81.807114,291.778137,114.826790,,,
45,0,158.094772,94.718933,117.291962,92.697655,198.588562,136.346832,84.460365,67.157951,120.878792,83.646217,256.686493,128.072418,81.832130,291.786285,114.827553,,,
46,0,158.094589,94.672951,117.286102,92.707199,198.538879,136.365524,84.450562,67.162453,120.869949,83.662766,256.673004,128.081802,81.871124,291.731140,114.849754,,,
47,0,158.111923,94.596626,117.303635,92.708626,198.448288,136.379471,84.449928,67.089058,120.837051,83.685402,256.602081,128.112091,81.943680,291.680115,114.816910,,,
48,0,158.116150,94.540695,117.321571,92.754501,198.377792,136.422577,84.483337,66.995026,120.806328,83.774513,256.544739,128.153870,82.017738,291.615906,114.913910,,,
49,0,158.109253,94.451569,117.337852,92.791573,198.322235,136.484604,84.428375,66.932961,120.803024,83.825508,256.441345,128.242264,82.090424,291.571869,115.006462,,,
50,0,158.122192,94.345169,117.334099,92.853516,198.218491,136.570786,84.455154,66.865677,120.813057,83.924866,256.405945,128.350601,82.193634,291.465088,115.147850,,,
51,0,158.192719,94.221809,117.359299,92.920692,198.097290,136.629898,84.481720,66.783813,120.797523,83.980896,256.271942,128.426010,82.246758,291.381195,115.218857,,,
52,0,158.177094,94.128914,117.324020,93.005280,198.005096,136.656479,84.479279,66.698730,120.755501,84.065575,256.184204,128.507690,82.339767,291.280212,115.306206,,,
53,0,158.246078,94.028046,117.355324,93.066673,197.874298,136.711563,84.484901,66.593307,120.776779,84.151382,256.058380,128.568939,82.435089,291.175262,115.364029,,,
54,0,158.256943,93.895401,117.364769,93.164604,197.774277,136.758179,84.524345,66.588783,120.780403,84.247086,255.993240,128.600494,82.534157,291.050598,115.400612,,,
55,0,158.274734,93.781677,117.362137,93.232590,197.641708,136.805679,84.532494,66.450684,120.816818,84.321518,255.856064,128.652130,82.626312,290.926605,115.456657,,,
56,0,158.292480,93.648392,117.334648,93.305092,197.532074,136.818878,84.528999,66.386299,120.785019,84.400604,255.745743,128.679413,82.711296,290.820190,115.499580,,,
57,0,158.344131,93.555489,117.343086,93.312042,197.437195,136.842468,84.528381,66.351768,120.743217,84.462723,255.661880,128.712982,82.790894,290.725708,115.553658,,,
58,0,158.338593,93.437798,117.320801,93.354523,197.339905,136.851654,84.484856,66.272484,120.668304,84.511589,255.574829,128.770477,82.857925,290.642303,115.589066,,,
59,0,158.353561,93.382927,117.366386,93.420372,197.225433,136.870422,84.491501,66.241852,120.600914,84.597824,255.497482,128.796204,82.942780,290.561584,115.655777,,,
60,0,158.361343,93.310547,117.396141,93.423676,197.146057,136.898300,84.454933,66.145264,120.565796,84.635674,255.422714,128.820251,82.996750,290.512543,115.677643,,,
61,0,158.363480,93.229462,117.407791,93.439896,197.082458,136.876114,84.443459,66.040489,120.527718,84.699844,255.322998,128.785278,83.083588,290.395081,115.623886,,,
62,0,158.334595,93.154053,117.421715,93.482155,197.016083,136.836136,84.385063,66.063721,120.448639,84.724442,255.278168,128.733459,83.114914,290.352142,115.547539,,,
63,0,158.355392,93.091629,117.431511,93.504089,196.980682,136.837341,84.426529,66.024193,120.463249,84.753387,255.243271,128.699661,83.158363,290.303375,115.515175,,,
64,0,158.327667,93.063828,117.398079,93.515602,196.939514,136.846176,84.396332,65.958237,120.467812,84.760712,255.197739,128.689148,83.161957,290.268463,115.454712,,,
65,0,158.308594,93.065216,117.386536,93.506088,196.925476,136.846207,84.354973,65.932930,120.500557,84.774246,255.214539,128.669937,83.154305,290.266937,115.431358,,,
66,0,158.291397,93.034904,117.348183,93.485191,196.871109,136.817215,84.318344,65.967476,120.438927,84.746887,255.175476,128.634781,83.124146,290.234253,115.389572,,,
67,0,158.258499,93.068939,117.378128,93.459259,196.890717,136.814072,84.285156,65.966225,120.395287,84.739494,255.189545,128.610931,83.102623,290.263794,115.378273,,,
68,0,158.203232,93.070740,117.432701,93.432541,196.898483,136.831680,84.275085,65.946602,120.408325,84.702667,255.226166,128.624908,83.076027,290.242340,115.367714,,,
69,0,158.155518,93.073761,117.469917,93.346817,196.891281,136.845779,84.207924,65.984215,120.404778,84.632301,255.235886,128.622864,83.050148,290.250153,115.382362,,,
70,0,158.109360,93.073929,117.488411,93.251526,196.907578,136.857407,84.150909,65.988487,120.363510,84.537354,255.249207,128.662369,82.986008,290.277161,115.409706,,,
71,0,158.068863,93.064224,117.575691,93.157982,196.951462,136.886246,84.089554,66.060692,120.335464,84.467003,255.293991,128.668686,82.913696,290.275360,115.413162,,,
72,0,158.014053,93.078712,117.645592,93.073906,196.935822,136.935532,84.036789,66.074928,120.281822,84.385605,255.245865,128.722824,82.820328,290.261108,115.477013,,,
73,0,157.985214,93.085464,117.672997,92.955887,196.929459,136.989868,83.994499,65.965378,120.265167,84.262077,255.263214,128.797516,82.694199,290.271057,115.578735,,,
74,0,157.903244,93.096558,117.720001,92.864487,196.928375,136.987686,83.947121,65.971443,120.253922,84.146027,255.223846,128.835419,82.580803,290.270264,115.617744,,,
75,0,157.860123,93.099388,117.757172,92.811691,196.892014,137.017197,83.892143,65.992859,120.279793,84.084267,255.224014,128.852417,82.491478,290.244720,115.660873,,,
76,0,157.807709,93.055176,117.771820,92.759483,196.887741,137.023666,83.861153,65.996574,120.266106,83.961319,255.189926,128.877747,82.382607,290.205597,115.642387,,,
77,0,157.800812,93.056976,117.816292,92.692688,196.809097,137.040649,83.859352,65.877998,120.260780,83.929558,255.121078,128.833374,82.320351,290.139679,115.595688,,,
78,0,157.777512,93.032654,117.837227,92.659538,196.788376,137.007141,83.826874,65.817101,120.233528,83.913490,255.107559,128.788818,82.265236,290.136536,115.509285,,,
79,0,157.760056,92.982552,117.840172,92.650459,196.741241,136.982346,83.769585,65.755119,120.197800,83.842491,255.113785,128.702774,82.201935,290.118835,115.407486,,,
80,0,157.788208,92.986687,117.805931,92.654892,196.766785,136.915375,83.804459,65.767273,120.220154,83.829826,255.107727,128.601028,82.164635,290.091797,115.285233,,,
81,0,157.758331,92.934059,117.758377,92.628586,196.764252,136.876984,83.779701,65.789925,120.242836,83.801743,255.113129,128.513626,82.144745,290.060242,115.149696,,,
82,0,157.740402,92.928596,117.718254,92.631561,196.739655,136.803589,83.739349,65.737083,120.221146,83.803604,255.080078,128.407242,82.154083,290.052094,114.978561,,,
83,0,157.751358,92.937660,117.704361,92.660965,196.753525,136.754883,83.730011,65.759041,120.155975,83.813362,255.060547,128.287262,82.156265,290.041626,114.840897,,,
84,0,157.747833,92.942413,117.667427,92.648003,196.750885,136.714645,83.761810,65.804260,120.115509,83.815659,255.089050,128.229111,82.170296,290.012573,114.787613,,,
85,0,157.765976,92.948677,117.681664,92.622833,196.720154,136.690964,83.783821,65.761131,120.045540,83.791649,255.067413,128.223694,82.166000,290.016968,114.798187,,,
86,0,157.790070,92.962830,117.711700,92.611938,196.701782,136.722076,83.787437,65.756546,120.038399,83.812759,255.094376,128.266266,82.183434,290.043091,114.831741,,,
87,0,157.791870,92.965065,117.732651,92.587646,196.670273,136.734085,83.775864,65.722992,120.038811,83.774834,255.079391,128.283737,82.182663,290.032410,114.874969,,,
88,0,157.793198,92.962723,117.760368,92.600868,196.716492,136.788589,83.787544,65.755074,120.066483,83.757408,255.116318,128.331482,82.150284,290.047974,114.884125,,,
89,0,157.793961,92.969902,117.768417,92.583015,196.739395,136.799866,83.804489,65.725204,120.058540,83.780258,255.101059,128.362061,82.152946,290.051331,114.934944,,,
90,0,157.807068,92.970985,117.771034,92.608185,196.749115,136.874496,83.772041,65.737091,120.137215,83.798370,255.095718,128.452515,82.175896,290.074646,115.032974,,,
91,0,157.797516,92.987152,117.807671,92.639946,196.773621,136.907196,83.825134,65.792038,120.186913,83.806686,255.114822,128.490250,82.185295,290.109039,115.065559,,,
92,0,157.812683,93.004280,117.792862,92.661674,196.814270,136.957916,83.829788,65.823074,120.172256,83.838760,255.167694,128.514328,82.211708,290.109650,115.096794,,,
93,0,157.792053,93.039764,117.740662,92.673126,196.833374,136.974396,83.852608,65.864349,120.214951,83.860580,255.193390,128.557785,82.184280,290.135010,115.083435,,,
94,0,157.805573,93.074997,117.727501,92.660896,196.838089,136.973892,83.837341,65.873566,120.221222,83.834587,255.228607,128.586975,82.179878,290.211884,115.132484,,,
95,0,157.788940,93.109047,117.745613,92.635239,196.897812,137.008163,83.836807,65.893219,120.229431,83.827179,255.272156,128.613434,82.153366,290.213898,115.162682,,,
96,0,157.797714,93.129745,117.751534,92.646301,196.920532,137.012695,83.855133,65.897552,120.247131,83.803947,255.304901,128.604095,82.155060,290.273254,115.173706,,,
97,0,157.782059,93.168663,117.759705,92.615288,196.929840,136.989288,83.848022,65.904297,120.220795,83.786011,255.318161,128.582870,82.114388,290.306641,115.188194,,,
98,0,157.788788,93.215164,117.747879,92.607338,197.013336,136.987946,83.856689,65.944168,120.213570,83.781120,255.371307,128.562851,82.133240,290.331909,115.166000,,,
99,0,157.770508,93.256203,117.745964,92.590492,197.039276,136.966324,83.829285,65.933762,120.195374,83.751740,255.411301,128.567581,82.099075,290.330811,115.133148,,,
100,0,157.773529,93.301636,117.723206,92.584427,197.108322,136.970932,83.849495,66.010391,120.265694,83.748070,255.484665,128.562317,82.056534,290.440338,115.110245,,,
101,0,157.769241,93.348114,117.692757,92.550484,197.154846,136.965775,83.880089,66.057846,120.305984,83.706276,255.499237,128.513458,82.024025,290.469635,115.059845,,,
102,0,157.739090,93.377045,117.683624,92.508438,197.218460,136.930588,83.835854,66.088173,120.301361,83.682838,255.537720,128.466614,81.989349,290.499542,114.994339,,,
103,0,157.724213,93.427864,117.702011,92.475220,197.266998,136.924438,83.841461,66.134087,120.312103,83.615219,255.618454,128.423523,81.923988,290.541534,114.921951,,,
104,0,157.690155,93.470413,117.734131,92.445938,197.283524,136.936035,83.839195,66.139854,120.322357,83.543282,255.625458,128.377838,81.851105,290.553925,114.829247,,,
105,0,157.693939,93.494141,117.751907,92.383850,197.340668,136.925354,83.810921,66.136505,120.286934,83.477737,255.708252,128.305954,81.752533,290.590424,114.690437,,,
106,0,157.663284,93.593597,117.757957,92.338409,197.391754,136.897217,83.797409,66.229088,120.302002,83.424370,255.759918,128.263382,81.685867,290.662262,114.617928,,,
107,0,157.659134,93.609962,117.722343,92.313705,197.436890,136.878235,83.774994,66.198471,120.337189,83.391029,255.809692,128.255585,81.624161,290.706543,114.601738,,,
108,0,157.657516,93.679062,117.677902,92.283348,197.486435,136.857925,83.773354,66.306046,120.344582,83.323349,255.865448,128.230545,81.558289,290.788330,114.582161,,,
109,0,157.633209,93.744301,117.657097,92.261475,197.589203,136.840103,83.751457,66.353844,120.325035,83.280106,255.941147,128.239914,81.467415,290.882019,114.600677,,,
110,0,157.665115,93.804741,117.629585,92.271370,197.653061,136.843597,83.818512,66.358353,120.389778,83.231560,255.988297,128.255157,81.413834,290.936615,114.589188,,,
111,0,157.644608,93.842361,117.563362,92.271667,197.705902,136.847961,83.780304,66.464828,120.376183,83.239914,256.069489,128.246521,81.371498,290.988678,114.564621,,,
112,0,157.660629,93.932236,117.547577,92.289917,197.769272,136.837921,83.807899,66.510010,120.431587,83.213043,256.140076,128.220963,81.385719,291.012787,114.544914,,,
113,0,157.657455,93.930504,117.531006,92.321442,197.828995,136.827423,83.791351,66.551224,120.456627,83.257477,256.146576,128.179459,81.397202,291.059967,114.496429,,,
114,0,157.653473,93.941849,117.486092,92.348839,197.886017,136.827393,83.841560,66.570061,120.519394,83.333405,256.231262,128.166061,81.515175,291.104065,114.476227,,,
115,0,157.673950,93.965988,117.528641,92.381157,197.922775,136.887726,83.808632,66.653000,120.555878,83.406662,256.341858,128.199127,81.590935,291.212585,114.488167,,,
116,0,157.677933,93.961243,117.562798,92.391457,197.925690,136.899612,83.804466,66.694443,120.523743,83.469482,256.271088,128.223557,81.674469,291.164093,114.521927,,,
117,0,157.678726,93.960541,117.562912,92.391647,197.940475,136.902267,83.799202,66.650612,120.550697,83.467720,256.308533,128.258331,81.707054,291.201477,114.558456,,,
118,0,157.710724,93.951233,117.567101,92.405357,197.915359,136.924301,83.838318,66.614456,120.465622,83.496979,256.353943,128.290070,81.720955,291.214569,114.651825,,,
119,0,157.728622,93.957703,117.570137,92.439095,197.921814,136.945633,83.897095,66.614120,120.486885,83.512016,256.311829,128.341705,81.751350,291.235382,114.685806,,,
120,0,157.745682,93.960190,117.574638,92.463097,197.910828,136.969391,83.874329,66.595306,120.457489,83.524841,256.309296,128.352997,81.754036,291.190796,114.682648,,,
121,0,157.780289,93.907333,117.583435,92.523735,197.916229,136.973206,83.904366,66.613701,120.492950,83.562988,256.334473,128.349670,81.772362,291.233887,114.693565,,,
122,0,157.808182,93.883072,117.522011,92.602280,197.933578,136.951797,83.952812,66.639565,120.502022,83.664230,256.327850,128.349564,81.844528,291.208771,114.660446,,,
123,0,157.836807,93.866615,117.506721,92.659683,197.918350,136.945084,83.967606,66.601738,120.553291,83.756287,256.299927,128.308975,81.931854,291.201080,114.597076,,,
124,0,157.886139,93.884224,117.497070,92.728561,197.924881,136.958008,84.005302,66.586243,120.589081,83.832031,256.291199,128.328003,82.041992,291.213226,114.625076,,,
125,0,157.895401,93.828232,117.432693,92.792038,197.929962,136.963776,83.995766,66.573753,120.566628,83.912796,256.270172,128.305328,82.099007,291.170441,114.596855,,,
126,0,157.936386,93.793900,117.405830,92.850471,197.857117,136.954102,84.052605,66.574455,120.604408,83.983086,256.300598,128.318024,82.192329,291.158020,114.588608,,,
127,0,157.918320,93.764427,117.399620,92.909332,197.829971,136.955566,84.085075,66.523575,120.603790,84.037445,256.240906,128.302567,82.249832,291.143890,114.544891,,,
128,0,157.969711,93.705338,117.401825,92.939323,197.788116,136.896469,84.066277,66.521614,120.595894,84.086067,256.209534,128.259735,82.290596,291.076050,114.517570,,,
129,0,157.994675,93.674377,117.441864,92.935020,197.719849,136.916916,84.077866,66.510567,120.568871,84.105141,256.179291,128.252121,82.368332,291.041473,114.530617,,,
130,0,158.000488,93.626556,117.408859,92.926392,197.695862,136.904785,84.051399,66.430473,120.560570,84.119881,256.115906,128.244080,82.393250,290.966583,114.515015,,,
131,0,158.020096,93.560974,117.426842,92.977386,197.648880,136.922760,84.113350,66.359978,120.574028,84.150589,256.056458,128.240433,82.410561,290.926941,114.504341,,,
132,0,158.039856,93.534233,117.437996,92.994781,197.602280,136.887314,84.126755,66.330414,120.534912,84.158737,256.010864,128.194519,82.409737,290.851776,114.468475,,,
133,0,158.065933,93.482399,117.374168,93.018417,197.501328,136.889465,84.125626,66.308754,120.462135,84.163689,255.965500,128.212769,82.406776,290.780334,114.446625,,,
134,0,158.049774,93.441879,117.357628,93.015396,197.459869,136.888290,84.117821,66.259911,120.559746,84.187248,255.911621,128.215424,82.408653,290.765564,114.451157,,,
135,0,158.065292,93.431313,117.358269,93.045616,197.427750,136.882614,84.125290,66.222038,120.552780,84.193230,255.875916,128.190369,82.386772,290.715332,114.417015,,,
136,0,158.114792,93.394669,117.363426,93.079178,197.411896,136.863586,84.144310,66.227600,120.491783,84.195877,255.833359,128.169342,82.384384,290.659302,114.400497,,,
137,0,158.113495,93.360252,117.352394,93.108963,197.413971,136.858215,84.140182,66.209579,120.547081,84.207993,255.852554,128.149185,82.380806,290.698395,114.381981,,,
138,0,158.111465,93.363792,117.345558,93.096062,197.374496,136.837158,84.137993,66.207756,120.547714,84.212898,255.821106,128.116287,82.379219,290.663208,114.329163,,,
139,0,158.081436,93.336624,117.352806,93.087135,197.390274,136.824249,84.120430,66.200836,120.453407,84.219818,255.819672,128.088165,82.429695,290.675751,114.257462,,,
140,0,158.109467,93.345940,117.336319,93.117668,197.380661,136.819290,84.136429,66.175743,120.523956,84.269386,255.847336,128.037491,82.464943,290.687073,114.213547,,,
141,0,158.105698,93.351616,117.322067,93.148788,197.409668,136.784546,84.134338,66.200806,120.550255,84.317329,255.853119,127.959816,82.508011,290.668335,114.098816,,,
142,0,158.107101,93.346329,117.286385,93.143936,197.459122,136.718063,84.146759,66.182671,120.519661,84.339180,255.859024,127.852959,82.524879,290.667511,113.978905,,,
143,0,158.106003,93.376587,117.285942,93.168251,197.486313,136.655319,84.173889,66.189323,120.574997,84.342735,255.904938,127.766502,82.567680,290.680511,113.862534,,,
144,0,158.118851,93.404251,117.253029,93.195152,197.498627,136.624054,84.181213,66.202766,120.552757,84.357597,255.906372,127.709686,82.580376,290.709167,113.794098,,,
145,0,158.111526,93.407310,117.224319,93.169586,197.514603,136.604889,84.132278,66.263138,120.524689,84.357918,255.936417,127.679962,82.576454,290.735321,113.764946,,,
146,0,158.122940,93.426430,117.155403,93.176865,197.534882,136.560120,84.162437,66.267479,120.511917,84.367157,255.947586,127.671318,82.572784,290.736053,113.726852,,,
147,0,158.126099,93.456886,117.162842,93.189774,197.547089,136.553696,84.158783,66.352432,120.519249,84.354179,255.963242,127.633408,82.554916,290.709198,113.719933,,,
148,0,158.158615,93.439621,117.220406,93.195274,197.574371,136.540848,84.195076,66.308182,120.446190,84.359055,255.975418,127.593605,82.546394,290.726746,113.660080,,,
149,0,158.163406,93.437920,117.206253,93.210121,197.591400,136.535172,84.187126,66.335045,120.533630,84.370956,255.978104,127.569214,82.551796,290.738159,113.606201,,,
150,0,158.148117,93.464020,117.204247,93.236557,197.562744,136.531036,84.180878,66.336952,120.594742,84.380890,255.970001,127.558472,82.545639,290.737091,113.574608,,,
151,0,158.157562,93.426239,117.181526,93.285248,197.577393,136.566116,84.219986,66.309235,120.588646,84.394173,256.005554,127.567558,82.585060,290.760223,113.594734,,,
152,0,158.149918,93.438431,117.133522,93.308586,197.551743,136.567184,84.198502,66.318871,120.604813,84.466125,255.998550,127.601387,82.647835,290.754333,113.596916,,,
153,0,158.149628,93.438026,117.134514,93.351921,197.550888,136.571823,84.196892,66.343460,120.593163,84.509804,256.019073,127.568230,82.691414,290.778687,113.599480,,,
154,0,158.167206,93.425797,117.136215,93.398445,197.576691,136.584122,84.188019,66.374069,120.618706,84.562660,255.986389,127.585754,82.763405,290.750031,113.576019,,,
155,0,158.167221,93.426628,117.136032,93.389465,197.540665,136.567947,84.225075,66.295837,120.564941,84.581230,255.993332,127.550644,82.806313,290.769623,113.584549,,,
156,0,158.166870,93.419495,117.126404,93.401840,197.506149,136.562546,84.225067,66.264885,120.546158,84.591736,255.990631,127.547745,82.822540,290.742981,113.579872,,,
157,0,158.182480,93.408623,117.128181,93.381340,197.488327,136.512100,84.214211,66.322029,120.532242,84.575981,255.956329,127.535492,82.816315,290.711029,113.543602,,,
158,0,158.194366,93.344887,117.084732,93.343941,197.476807,136.548767,84.198708,66.271072,120.551590,84.596008,255.910309,127.563011,82.789314,290.674561,113.604637,,,
159,0,158.177124,93.336685,117.082336,93.360474,197.447067,136.518753,84.227020,66.248161,120.524437,84.546127,255.888016,127.568024,82.732613,290.632263,113.589203,,,
160,0,158.190720,93.323647,117.096161,93.344986,197.394028,136.513992,84.203163,66.203056,120.521820,84.505142,255.816757,127.564980,82.684677,290.602661,113.608368,,,
161,0,158.187653,93.301369,117.080048,93.352730,197.376923,136.536728,84.201889,66.169434,120.516571,84.479492,255.797302,127.579597,82.664162,290.523346,113.594437,,,
162,0,158.187546,93.295395,117.071136,93.351959,197.366486,136.554810,84.106995,66.203201,120.476250,84.502945,255.772324,127.574013,82.647774,290.558014,113.609825,,,
163,0,158.205276,93.267868,117.068321,93.386818,197.375305,136.546158,84.086983,66.150558,120.542801,84.556801,255.769379,127.585709,82.667000,290.547729,113.606323,,,
164,0,158.231689,93.229362,117.041840,93.419289,197.351837,136.555939,84.065468,66.201042,120.479225,84.556442,255.792496,127.573059,82.696793,290.537079,113.583305,,,
165,0,158.227722,93.219849,117.005882,93.469879,197.303452,136.559204,84.100365,66.178696,120.528038,84.550842,255.777206,127.581223,82.697411,290.528290,113.602180,,,
166,0,158.243118,93.225395,116.994507,93.497551,197.315308,136.580307,84.092422,66.167267,120.499451,84.633736,255.790390,127.637688,82.743210,290.516357,113.626572,,,
167,0,158.278183,93.241638,116.983078,93.512550,197.286804,136.549118,84.088051,66.180618,120.515411,84.662666,255.762543,127.590210,82.790794,290.505707,113.613297,,,
168,0,158.272125,93.240654,116.920013,93.548080,197.329056,136.510529,84.086296,66.173088,120.559433,84.721710,255.789963,127.573296,82.857391,290.522156,113.573883,,,
169,0,158.268875,93.239548,116.939217,93.575478,197.331879,136.517776,84.078835,66.185265,120.552811,84.758049,255.771454,127.535522,82.891632,290.470764,113.493675,,,
170,0,158.289261,93.211700,116.916588,93.579910,197.324326,136.520386,84.088432,66.088623,120.527092,84.761093,255.772827,127.472046,82.895805,290.473480,113.417786,,,
171,0,158.304398,93.196518,116.909401,93.555511,197.328384,136.489563,84.087189,66.103035,120.558617,84.739006,255.767548,127.401367,82.874123,290.462463,113.317024,,,
172,0,158.288864,93.205872,116.908844,93.540733,197.323837,136.456604,84.088852,66.117462,120.542732,84.714821,255.775772,127.354279,82.841690,290.463440,113.283066,,,
173,0,158.255386,93.223412,116.909142,93.508652,197.323196,136.439133,84.051300,66.114845,120.516396,84.669464,255.770691,127.320053,82.804245,290.437103,113.231926,,,
174,0,158.258743,93.187202,116.922112,93.469475,197.315948,136.379272,83.995094,66.151512,120.472588,84.623947,255.743530,127.255646,82.728500,290.453857,113.207863,,,
175,0,158.224854,93.209007,116.977386,93.411697,197.302780,136.377182,84.137527,66.072823,120.445023,84.561684,255.716797,127.262634,82.676140,290.415863,113.181938,,,
176,0,158.205933,93.194992,116.953537,93.403778,197.292267,136.359131,84.125992,66.083206,120.454269,84.556145,255.748032,127.257362,82.669632,290.409271,113.172966,,,
177,0,158.179886,93.184036,116.936745,93.397453,197.299301,136.352783,84.100739,66.102570,120.392517,84.514702,255.735336,127.233940,82.673225,290.392456,113.167793,,,
178,0,158.163300,93.182983,116.954033,93.378883,197.291397,136.332138,84.053123,66.058563,120.388939,84.522980,255.738174,127.223984,82.645935,290.407501,113.153229,,,
179,0,158.129623,93.180084,116.955734,93.369652,197.276825,136.356308,84.010269,66.098480,120.402451,84.504570,255.705536,127.230316,82.617538,290.399017,113.156082,,,
180,0,158.131348,93.164780,116.975922,93.348778,197.291992,136.351379,83.978378,66.109802,120.409485,84.495361,255.711014,127.241508,82.625465,290.408600,113.139366,,,
181,0,158.080124,93.131348,116.976265,93.361580,197.262283,136.358612,83.984222,66.134422,120.424820,84.504395,255.700912,127.236473,82.647575,290.380646,113.121254,,,
182,0,158.079681,93.117500,116.966553,93.337402,197.233643,136.333008,83.970016,66.042130,120.415756,84.515533,255.662506,127.205658,82.636246,290.322784,113.078476,,,
183,0,158.066254,93.097984,116.986336,93.319603,197.238220,136.317764,83.939728,66.015060,120.413101,84.488701,255.645248,127.159775,82.611595,290.278992,113.012169,,,
184,0,158.072006,93.057487,117.013206,93.313637,197.192169,136.283508,83.928818,66.021103,120.355270,84.462860,255.651627,127.094864,82.595375,290.252411,112.970192,,,
185,0,158.085022,92.998291,116.987579,93.315216,197.131638,136.243393,83.955429,66.010551,120.333969,84.478470,255.605606,127.061203,82.585564,290.231384,112.916992,,,
186,0,158.078613,93.000725,116.958298,93.318825,197.055298,136.209564,83.945724,65.926865,120.341881,84.472305,255.525894,127.021744,82.574509,290.174500,112.860016,,,
187,0,158.108154,92.951096,116.915878,93.336578,197.026794,136.179962,83.962769,65.904236,120.300827,84.473213,255.477753,126.992645,82.588303,290.119934,112.837265,,,
188,0,158.105621,92.917213,116.926971,93.352760,196.994995,136.153671,83.978500,65.866524,120.293953,84.492554,255.445068,126.989601,82.620102,290.062134,112.864037,,,
189,0,158.105316,92.899651,116.906113,93.341957,196.918655,136.168259,83.959930,65.861038,120.259102,84.518867,255.414520,127.002953,82.635254,290.047485,112.895569,,,
190,0,158.110703,92.814583,116.924202,93.350357,196.913773,136.175400,83.975128,65.742126,120.238609,84.534187,255.353958,127.032623,82.694130,290.003723,112.924980,,,
191,0,158.126175,92.800476,116.951500,93.366104,196.853210,136.214264,83.993393,65.730705,120.186668,84.519905,255.317093,127.068565,82.697853,289.967499,112.981712,,,
192,0,158.154861,92.749535,116.995956,93.356659,196.800720,136.240387,83.993752,65.749718,120.206017,84.559547,255.280609,127.130043,82.742935,289.945068,113.022369,,,
193,0,158.133591,92.704529,117.001404,93.375458,196.797379,136.245300,83.992882,65.721489,120.232040,84.587143,255.254593,127.151894,82.751106,289.913666,113.029434,,,
194,0,158.150848,92.680107,116.997787,93.390846,196.765793,136.260727,83.982994,65.703094,120.243752,84.623398,255.227951,127.150566,82.787308,289.886475,113.040184,,,
195,0,158.167816,92.667770,117.000168,93.460983,196.729614,136.268341,83.999985,65.694016,120.263184,84.665039,255.206192,127.126633,82.810234,289.868896,113.008682,,,
196,0,158.179596,92.667572,116.987328,93.487289,196.719040,136.241745,84.035912,65.672920,120.256599,84.714401,255.184357,127.104584,82.859505,289.834625,112.988609,,,
197,0,158.190384,92.623573,116.925156,93.509850,196.728302,136.216400,84.066254,65.642487,120.247437,84.745453,255.149750,127.110123,82.845787,289.788208,112.970665,,,
198,0,158.183945,92.636604,116.891937,93.517052,196.699005,136.216415,84.070663,65.657410,120.213081,84.744003,255.143906,127.091232,82.842308,289.806854,112.959930,,,
199,0,158.167786,92.640129,116.851875,93.505371,196.660675,136.154205,84.065948,65.676361,120.179771,84.706947,255.146774,127.041428,82.842422,289.797394,112.926888,,,
200,0,158.169861,92.640724,116.852829,93.485512,196.668839,136.168396,84.027481,65.658531,120.149826,84.681168,255.147278,127.033394,82.832298,289.794067,112.936813,,,
201,0,158.153397,92.666992,116.899017,93.456039,196.688416,136.161469,83.976112,65.687950,120.125877,84.660255,255.167389,127.035675,82.784218,289.811401,112.935493,,,
202,0,158.160263,92.650482,116.917999,93.421104,196.729126,136.154434,84.002571,65.699562,120.117447,84.619255,255.162506,127.031151,82.768471,289.800140,112.923233,,,
203,0,158.149750,92.678329,116.952782,93.411896,196.738174,136.159271,83.958649,65.675354,120.176849,84.563065,255.194031,127.011848,82.722229,289.852814,112.881165,,,
204,0,158.116241,92.697296,116.975700,93.356941,196.769974,136.130234,83.947037,65.773270,120.194565,84.542465,255.205063,126.977577,82.700226,289.845612,112.889763,,,
205,0,158.114594,92.776093,116.968597,93.322502,196.784454,136.129074,83.912041,65.787621,120.177048,84.514389,255.238052,127.000343,82.675438,289.897583,112.891708,,,
206,0,158.074814,92.803627,116.941399,93.325104,196.813309,136.133392,83.909340,65.823135,120.154037,84.520905,255.291489,126.993073,82.663811,289.930328,112.875488,,,
207,0,158.025024,92.820549,116.938049,93.302490,196.856735,136.142105,83.861305,65.827248,120.158066,84.490799,255.308716,127.000633,82.645294,289.949280,112.838226,,,
208,0,158.015884,92.845108,116.959206,93.293663,196.874298,136.111435,83.818451,65.845222,120.142891,84.468170,255.327850,126.991776,82.610138,290.004303,112.841064,,,
209,0,158.000656,92.873543,116.964249,93.252373,196.907272,136.115173,83.789978,65.861382,120.134331,84.429565,255.348145,126.962456,82.560837,290.014862,112.834587,,,
210,0,157.997665,92.876503,116.960396,93.220276,196.918777,136.116348,83.767197,65.851555,120.098549,84.390755,255.379654,126.976448,82.530327,290.030334,112.873680,,,
211,0,157.944473,92.857124,116.955246,93.178329,196.890045,136.156036,83.716858,65.861382,120.100601,84.343948,255.393951,127.034935,82.469025,290.029022,112.924362,,,
212,0,157.933624,92.822876,116.970436,93.151726,196.893219,136.150269,83.732338,65.856979,120.106110,84.275932,255.350418,127.056938,82.417809,290.019745,112.939491,,,
213,0,157.911453,92.813942,116.988235,93.118446,196.885178,136.145813,83.724930,65.821205,120.030304,84.229889,255.338730,127.052231,82.340973,289.996918,112.930931,,,
214,0,157.908356,92.794327,117.033867,93.051521,196.818024,136.155746,83.684158,65.860924,120.022568,84.170410,255.257095,127.040207,82.279877,289.916382,112.912323,,,
215,0,157.889847,92.772209,117.036667,93.014305,196.779144,136.139862,83.713638,65.705284,120.053627,84.117928,255.229263,127.024872,82.229019,289.904388,112.931709,,,
216,0,157.871445,92.764046,117.033539,92.992775,196.730911,136.163162,83.693184,65.703476,120.031815,84.078384,255.193680,127.044662,82.193535,289.871246,112.925751,,,
217,0,157.841995,92.718925,117.044243,92.981262,196.698349,136.132706,83.718643,65.674210,120.050621,84.093483,255.155258,127.041428,82.207481,289.845825,112.913223,,,
218,0,157.822647,92.693962,117.052345,92.948685,196.701340,136.114670,83.698387,65.686760,120.002144,84.067642,255.121140,126.998482,82.188705,289.809723,112.885277,,,
219,0,157.824356,92.680817,117.102715,92.950684,196.667618,136.076294,83.697906,65.581253,119.974823,84.057739,255.136810,126.970497,82.205948,289.782166,112.854164,,,
220,0,157.803177,92.685982,117.124176,92.959190,196.627594,136.064865,83.689423,65.615257,119.956291,84.082085,255.091431,126.910660,82.244362,289.732971,112.825264,,,
221,0,157.829605,92.602036,117.104073,92.972473,196.618622,136.062408,83.657860,65.636864,119.968925,84.108788,255.071075,126.917572,82.257034,289.727905,112.811226,,,
222,0,157.810272,92.602806,117.096771,92.965706,196.583038,136.048630,83.658546,65.587730,119.943146,84.115860,255.053726,126.903252,82.271965,289.709564,112.774933,,,
223,0,157.798523,92.554863,117.120804,92.955734,196.551331,136.040558,83.646812,65.607727,119.944145,84.116211,255.011826,126.882713,82.254585,289.673676,112.737770,,,
224,0,157.812576,92.545319,117.120049,92.958145,196.500870,136.027298,83.651123,65.551041,119.930649,84.100052,254.951981,126.859856,82.248741,289.614502,112.729042,,,
225,0,157.835907,92.486313,117.136185,92.934540,196.445740,136.024918,83.670952,65.463753,119.923599,84.109207,254.890594,126.852959,82.240494,289.527252,112.726288,,,
226,0,157.834137,92.465874,117.134239,92.924637,196.396240,136.012787,83.692024,65.432396,119.936607,84.081482,254.881592,126.844284,82.200249,289.524872,112.699608,,,
227,0,157.811600,92.421249,117.109138,92.933273,196.364120,135.995010,83.688911,65.380272,119.899292,84.047890,254.819427,126.816063,82.145889,289.459808,112.694168,,,
228,0,157.801590,92.434555,117.126770,92.907028,196.318604,135.983734,83.654533,65.422958,119.856758,84.057335,254.806107,126.819504,82.184380,289.434540,112.710022,,,
229,0,157.819214,92.356003,117.137314,92.901543,196.269424,136.014725,83.652878,65.388367,119.861977,84.063881,254.770599,126.859787,82.189438,289.417633,112.735146,,,
230,0,157.822189,92.358238,117.153755,92.919464,196.249710,136.032700,83.613045,65.371254,119.833504,84.034920,254.745422,126.888184,82.215065,289.382965,112.763519,,,
231,0,157.793015,92.310486,117.191193,92.876335,196.232819,136.041672,83.612747,65.356094,119.800316,84.025368,254.694077,126.914932,82.189301,289.332520,112.816940,,,
232,0,157.775665,92.307816,117.214035,92.822800,196.197006,136.038818,83.616356,65.288460,119.770248,83.998299,254.659805,126.941788,82.174721,289.317444,112.848831,,,
233,0,157.781403,92.265182,117.244881,92.817833,196.159561,136.061386,83.585144,65.349098,119.694359,83.971298,254.613464,126.983597,82.145538,289.293091,112.920631,,,
234,0,157.767868,92.260185,117.258743,92.780441,196.114746,136.064346,83.561150,65.311729,119.673660,83.940926,254.581146,127.007469,82.121704,289.237213,112.948914,,,
235,0,157.746170,92.248215,117.241043,92.824379,196.096176,136.101944,83.550369,65.329834,119.695694,83.964470,254.569687,127.069847,82.117195,289.247437,112.985268,,,
236,0,157.731033,92.230347,117.247421,92.831604,196.088303,136.110550,83.597488,65.257935,119.727478,83.987503,254.571884,127.069977,82.127609,289.221436,112.999100,,,
237,0,157.748230,92.219475,117.249474,92.838562,196.090576,136.117432,83.537979,65.272789,119.759819,83.967758,254.562057,127.045631,82.128532,289.195770,112.967636,,,
238,0,157.731033,92.210793,117.245949,92.820312,196.070175,136.085938,83.538040,65.270287,119.758614,83.949837,254.528427,127.012115,82.120583,289.129303,112.919777,,,
239,0,157.731415,92.183937,117.246513,92.832397,196.044861,136.085007,83.537430,65.229012,119.750381,83.950562,254.533951,126.983330,82.120178,289.117828,112.885612,,,
240,0,157.734329,92.178436,117.257607,92.803391,196.003250,136.077194,83.530281,65.194237,119.776840,83.953751,254.486984,126.957092,82.098358,289.135956,112.871330,,,
241,0,157.736649,92.169968,117.255699,92.788727,195.997650,136.057785,83.496628,65.192764,119.722031,83.930023,254.496628,126.935852,82.100624,289.106476,112.841125,,,
242,0,157.720276,92.167915,117.251984,92.783096,195.968155,135.997253,83.484116,65.200775,119.672134,83.927719,254.461411,126.871407,82.106125,289.088379,112.760490,,,
243,0,157.736481,92.175171,117.264679,92.772934,195.984482,135.947739,83.497711,65.196732,119.656250,83.920250,254.469604,126.773209,82.115120,289.090271,112.667953,,,
244,0,157.736221,92.175743,117.265450,92.791916,196.002121,135.896698,83.500862,65.189262,119.617836,83.957336,254.484451,126.707718,82.131615,289.057709,112.596191,,,
245,0,157.725754,92.162613,117.217064,92.808784,195.972687,135.856583,83.502747,65.193565,119.649483,83.987137,254.429672,126.656784,82.140663,289.071167,112.511833,,,
246,0,157.768753,92.161407,117.148499,92.864502,196.031143,135.819519,83.531288,65.172798,119.645248,84.009048,254.502060,126.618248,82.156731,289.100372,112.490471,,,
247,0,157.777603,92.180664,117.059731,92.881042,196.036972,135.768784,83.540871,65.212746,119.659805,84.043808,254.514694,126.580910,82.174210,289.140167,112.432358,,,
248,0,157.812866,92.236755,117.069969,92.945465,196.095779,135.783844,83.567123,65.258636,119.647644,84.064095,254.559464,126.578346,82.190796,289.161438,112.414375,,,
249,0,157.805496,92.260155,117.048096,92.947365,196.105209,135.764587,83.591003,65.319756,119.691605,84.101181,254.584549,126.569626,82.236969,289.200989,112.405838,,,
250,0,157.821732,92.234169,117.045914,92.951950,196.137268,135.786957,83.606117,65.280182,119.682335,84.111656,254.627853,126.586693,82.258232,289.245697,112.410210,,,
251,0,157.842117,92.298874,117.068115,92.971329,196.128693,135.827240,83.633972,65.333099,119.693031,84.152908,254.644363,126.638275,82.303337,289.240143,112.504951,,,
252,0,157.843735,92.304405,117.077179,92.972939,196.166245,135.863266,83.633476,65.315178,119.712021,84.144096,254.636414,126.700729,82.337982,289.250916,112.575165,,,
253,0,157.830795,92.309944,117.112984,92.973747,196.190384,135.916718,83.652046,65.361191,119.734108,84.144402,254.658020,126.751137,82.320824,289.279236,112.657188,,,
254,0,157.853088,92.365677,117.144630,92.971886,196.198364,135.952972,83.664062,65.325546,119.720970,84.151428,254.663910,126.833214,82.309563,289.255005,112.727402,,,
255,0,157.851349,92.364014,117.143997,92.973343,196.202072,135.990448,83.655464,65.336990,119.716522,84.124481,254.653900,126.850945,82.275597,289.283966,112.730362,,,
256,0,157.851730,92.356918,117.135330,92.974167,196.216003,135.986343,83.647270,65.366753,119.777420,84.131958,254.665970,126.848358,82.270828,289.314453,112.727058,,,
257,0,157.844467,92.352066,117.076424,92.992249,196.202591,135.968399,83.618683,65.427940,119.776184,84.177155,254.684692,126.827911,82.317802,289.333710,112.694710,,,
258,0,157.839630,92.355576,117.093666,93.015976,196.277985,135.939545,83.652527,65.437370,119.811531,84.163017,254.723724,126.775009,82.296120,289.339630,112.627411,,,
259,0,157.843216,92.355469,117.070793,92.993843,196.293610,135.897095,83.633232,65.416718,119.765678,84.160492,254.732452,126.691956,82.296013,289.342072,112.537483,,,
260,0,157.820465,92.383110,117.034103,92.999161,196.328552,135.845749,83.595116,65.433624,119.778282,84.144249,254.761932,126.585144,82.288460,289.382935,112.431503,,,
261,0,157.819260,92.455322,117.032448,92.968521,196.360077,135.788284,83.583984,65.505386,119.726692,84.108925,254.785690,126.497551,82.243652,289.420227,112.342934,,,
262,0,157.783600,92.469528,117.018692,92.948677,196.395340,135.706436,83.604691,65.539635,119.729630,84.086929,254.814743,126.438644,82.231018,289.429443,112.267212,,,
263,0,157.779129,92.498665,117.037376,92.896851,196.415359,135.676773,83.552864,65.533867,119.741432,84.066902,254.852539,126.381264,82.239403,289.454468,112.211388,,,
264,0,157.774628,92.528244,117.073730,92.849480,196.425629,135.643250,83.569366,65.521225,119.685127,84.034515,254.862152,126.349716,82.190117,289.478180,112.180458,,,
265,0,157.774963,92.533875,117.082687,92.845604,196.453995,135.641708,83.527046,65.557571,119.680191,83.990898,254.866180,126.377838,82.161636,289.490387,112.193054,,,
266,0,157.758759,92.559456,117.085495,92.815819,196.448715,135.644882,83.519516,65.601173,119.707588,83.994629,254.869308,126.372574,82.145439,289.495483,112.198433,,,
267,0,157.758987,92.551414,117.077972,92.820702,196.461273,135.672180,83.530312,65.576523,119.695671,83.983444,254.888779,126.398880,82.109077,289.483246,112.241806,,,
268,0,157.742599,92.552231,117.073151,92.821686,196.469070,135.707779,83.554451,65.554718,119.671806,83.961082,254.858612,126.478775,82.100952,289.498352,112.307762,,,
269,0,157.743195,92.558846,117.082047,92.827011,196.480682,135.753723,83.568367,65.539970,119.728584,83.958672,254.866211,126.550362,82.085732,289.539948,112.415169,,,
270,0,157.742950,92.550011,117.073669,92.805496,196.447861,135.818405,83.591583,65.529800,119.719170,83.953880,254.870529,126.620293,82.073265,289.512909,112.519669,,,
271,0,157.743835,92.556023,117.082779,92.806259,196.429855,135.854309,83.588242,65.535942,119.765541,83.902863,254.862015,126.698822,82.051186,289.513153,112.595154,,,
272,0,157.743134,92.557770,117.081459,92.764313,196.424484,135.893494,83.555084,65.500603,119.707405,83.890892,254.874619,126.749115,82.022728,289.525970,112.654526,,,
273,0,157.726562,92.563866,117.096870,92.723717,196.406494,135.914902,83.581154,65.497047,119.737656,83.859108,254.869705,126.777260,81.998428,289.547363,112.668633,,,
274,0,157.726059,92.574493,117.096092,92.724106,196.430008,135.904266,83.550888,65.530228,119.762009,83.851662,254.860703,126.772865,81.986580,289.537384,112.675003,,,
275,0,157.711838,92.600967,117.100464,92.719391,196.475800,135.863449,83.545280,65.567902,119.716728,83.868286,254.875900,126.758102,81.990814,289.544830,112.650330,,,
276,0,157.692322,92.595253,117.087769,92.708427,196.463455,135.817963,83.510544,65.551643,119.733696,83.829407,254.889404,126.689941,81.977409,289.559357,112.608749,,,
277,0,157.674545,92.587975,117.074768,92.692955,196.483841,135.798370,83.525398,65.589653,119.667976,83.822098,254.896439,126.648170,81.969917,289.548767,112.529198,,,
278,0,157.671692,92.636429,117.069038,92.677811,196.506226,135.761429,83.530472,65.557259,119.658485,83.835838,254.921341,126.565117,81.979858,289.580963,112.456596,,,
279,0,157.673920,92.636490,117.070023,92.646828,196.545532,135.718552,83.486740,65.625076,119.706535,83.798035,254.924988,126.496391,81.894188,289.558777,112.384079,,,
280,0,157.656021,92.635849,117.074989,92.630455,196.544586,135.687897,83.489723,65.634262,119.686874,83.752991,254.953568,126.467690,81.900894,289.612793,112.311676,,,
281,0,157.652283,92.642769,117.058296,92.638985,196.558502,135.675751,83.425224,65.617950,119.678146,83.754562,254.939529,126.414459,81.882927,289.601440,112.270950,,,
282,0,157.655594,92.634468,117.030190,92.616356,196.575638,135.634430,83.415833,65.675087,119.641922,83.736626,254.927185,126.392586,81.837593,289.590942,112.249969,,,
283,0,157.621902,92.643814,117.024086,92.585533,196.566162,135.625473,83.417023,65.647720,119.644211,83.700462,254.941193,126.388504,81.807625,289.608276,112.270081,,,
284,0,157.620972,92.645088,117.023560,92.528091,196.524445,135.662598,83.430466,65.627892,119.612541,83.662399,254.924774,126.446785,81.789078,289.547333,112.294693,,,
285,0,157.586288,92.648499,117.074585,92.513504,196.514786,135.683884,83.436668,65.603279,119.593651,83.623505,254.937149,126.478714,81.724861,289.576996,112.391151,,,
286,0,157.559433,92.656418,117.101852,92.501602,196.495575,135.738068,83.389091,65.598457,119.578949,83.573578,254.924423,126.561653,81.703362,289.567108,112.446358,,,
287,0,157.563217,92.617195,117.157654,92.459579,196.459000,135.794952,83.399994,65.565117,119.578102,83.566223,254.891388,126.612541,81.692673,289.529633,112.503731,,,
288,0,157.571182,92.574631,117.173866,92.471901,196.441956,135.810532,83.420387,65.545624,119.609314,83.562492,254.870361,126.636177,81.707542,289.531128,112.521812,,,
289,0,157.521347,92.573021,117.177452,92.464645,196.446960,135.831543,83.384247,65.528282,119.597969,83.577263,254.873489,126.678749,81.734406,289.530609,112.537971,,,
290,0,157.540527,92.559456,117.192467,92.444275,196.433167,135.833878,83.399063,65.545273,119.600945,83.575249,254.876709,126.669853,81.742516,289.509674,112.599663,,,
291,0,157.536926,92.546844,117.173492,92.460327,196.404327,135.840897,83.412323,65.539780,119.545586,83.575851,254.855789,126.693665,81.735672,289.497589,112.597466,,,
292,0,157.536438,92.547653,117.173470,92.439545,196.410187,135.824585,83.412697,65.538933,119.544373,83.577461,254.832870,126.680405,81.745445,289.495117,112.612770,,,
293,0,157.535995,92.546715,117.173309,92.408737,196.373306,135.833679,83.411278,65.497047,119.537514,83.541260,254.834808,126.696648,81.722221,289.478394,112.592606,,,
294,0,157.574265,92.546204,117.202461,92.416008,196.349731,135.869675,83.398849,65.501694,119.516655,83.516075,254.824905,126.741928,81.685051,289.470459,112.603745,,,
295,0,157.576263,92.518608,117.204170,92.404480,196.299606,135.948257,83.435814,65.498001,119.483521,83.441628,254.800644,126.807648,81.594818,289.443817,112.693733,,,
296,0,157.602341,92.530006,117.152473,92.375305,196.250259,136.129089,83.446976,65.502609,119.488983,83.376122,254.802521,126.957985,81.507721,289.425293,112.798485,,,
297,0,157.625595,92.504868,117.077560,92.327652,196.153870,136.399673,83.509720,65.472786,119.419937,83.297768,254.832413,127.282799,81.334442,289.350311,113.001518,,,
298,0,157.664795,92.495300,116.988014,92.287727,196.000275,136.925232,83.551636,65.474304,119.381683,83.100258,254.818649,127.819389,81.047607,289.319763,113.474480,,,
299,0,157.686966,92.427887,116.920403,92.219513,195.804276,137.636978,83.596962,65.419312,119.382698,82.817696,254.769974,128.588043,80.710396,289.246460,114.210938,,,
300,0,157.704468,92.418472,116.918427,92.168602,195.587784,138.482193,83.667793,65.407402,119.357430,82.590523,254.716599,129.637894,80.345497,289.164337,115.187180,,,
301,0,157.712250,92.334518,116.962112,92.131821,195.332474,139.527618,83.670082,65.346359,119.350586,82.324371,254.645233,130.837875,79.997742,289.067932,116.331696,,,
302,0,157.685059,92.242554,117.098114,92.099281,195.009445,140.762573,83.660599,65.269783,119.345757,82.091232,254.568069,132.250931,79.677750,288.974213,117.642822,,,
303,0,157.614548,92.221893,117.248444,92.100990,194.666656,142.135941,83.717636,65.164352,119.343910,81.997612,254.495972,133.841690,79.449509,288.842560,119.101753,,,
304,0,157.621506,92.101936,117.440941,92.182495,194.233002,143.696747,83.753189,65.108376,119.328346,81.941330,254.422821,135.707733,79.256561,288.721802,120.650055,,,
305,0,157.556686,92.073929,117.588974,92.309425,193.824081,145.368530,83.755318,65.005409,119.396164,81.951897,254.354202,137.518188,79.196869,288.553070,122.178032,,,
306,0,157.477768,91.964188,117.709831,92.483788,193.333435,147.161530,83.788170,64.961533,119.365082,82.057899,254.254700,139.427704,79.128479,288.364227,123.559242,,,
307,0,157.411911,91.912422,117.811707,92.673492,192.813965,148.978119,83.822777,64.905235,119.397133,82.236328,254.156265,141.424133,79.149895,288.116241,124.723999,,,
308,0,157.301956,91.834412,117.945404,92.931976,192.271454,150.825378,83.849747,64.884407,119.415871,82.488518,253.943863,143.401337,79.138863,287.824127,125.696632,,,
309,0,157.208633,91.758850,118.123123,93.229324,191.655258,152.669006,83.892380,64.842781,119.433525,82.826660,253.764481,145.471802,79.189156,287.470825,126.654655,,,
310,0,157.145569,91.682030,118.282974,93.472374,191.010483,154.454895,83.944160,64.820839,119.419464,83.167000,253.499802,147.412491,79.288002,287.057861,127.621544,,,
311,0,157.056839,91.644722,118.508385,93.605080,190.322235,156.258286,83.970299,64.739784,119.445610,83.476830,253.214691,149.407852,79.334724,286.537292,128.525726,,,
312,0,156.984634,91.577721,118.702065,93.697548,189.642517,157.940796,84.107040,64.715813,119.459946,83.737259,252.899139,151.237076,79.116341,285.960999,129.266418,,,
313,0,156.933060,91.495636,118.916290,93.850929,188.947845,159.586243,83.987892,64.693207,119.429642,83.571182,252.533905,153.085388,78.538147,285.303345,130.042068,,,
314,0,156.859619,91.444595,119.082481,93.981903,188.323654,161.138489,84.062263,64.617615,119.388832,83.234497,252.150116,154.903656,78.001328,284.565491,130.722366,,,
315,0,156.801331,91.366516,119.232979,94.158203,187.593170,162.627991,84.184097,64.569069,119.344879,83.170776,251.796509,156.682541,77.668205,283.862152,131.307312,,,
316,0,156.728317,91.314270,119.401810,94.236473,186.878616,163.963730,84.203346,64.512192,119.329842,83.230629,251.416199,158.313370,77.503883,283.088257,131.730621,,,
317,0,156.715958,91.248360,119.542313,94.317413,186.214127,165.203598,84.361427,64.375084,119.293442,83.344429,251.065170,159.870697,77.348633,282.207947,131.971924,,,
318,0,156.679413,91.212189,119.643372,94.432106,185.507370,166.402313,84.531937,64.324493,119.219955,83.401733,250.756027,161.289154,77.167053,281.144989,131.886383,,,
319,0,156.652084,91.201317,119.664032,94.492668,184.895081,167.444733,84.731384,64.210419,119.127846,83.339966,250.464355,162.615341,76.865974,279.980011,131.618530,,,
320,0,156.640656,91.127945,119.724861,94.561607,184.331894,168.411636,84.890266,64.083107,119.004845,83.300575,250.230942,163.879349,76.582237,278.605164,131.013855,,,
321,0,156.637405,91.129646,119.839508,94.674431,183.760544,169.333923,84.997849,64.040710,118.848778,83.291275,250.105713,164.925766,76.207787,277.076782,130.064423,,,
322,0,156.600266,91.076675,119.903915,94.799606,183.281830,170.180267,85.254295,63.966759,118.762512,83.354065,250.108658,165.810730,75.997459,275.002228,128.611450,,,
323,0,156.581619,91.019516,119.999809,95.000771,182.994308,170.929489,85.451019,63.921444,118.659393,83.420921,250.280441,166.438202,75.605225,272.658081,127.005951,,,
324,0,156.595917,90.992752,119.994766,95.225143,182.744965,171.548615,85.629715,63.807583,118.615936,83.487648,250.516357,166.882416,75.470947,270.510773,125.643295,,,
325,0,156.612747,90.983345,119.996216,95.493660,182.509293,172.082336,85.794403,63.783436,118.559944,83.579430,250.850586,167.075104,75.325500,268.210815,124.266037,,,
326,0,156.652420,90.966431,119.909721,95.825760,182.313126,172.588486,85.973335,63.714958,118.450981,83.658562,251.149506,167.125061,75.318924,265.979675,123.089920,,,
327,0,156.731812,90.936310,119.820282,96.123581,182.140350,172.990814,86.148109,63.752575,118.338501,83.766396,251.317535,167.079620,75.391556,263.772461,122.042786,,,
328,0,156.777359,90.938507,119.817429,96.372391,181.946869,173.385544,86.314232,63.793236,118.155914,83.856293,251.401901,166.998611,75.142410,261.565826,121.383659,,,
329,0,156.888748,90.984444,119.804001,96.641525,181.797638,173.786896,86.476120,63.821770,118.103783,83.792885,251.596268,166.784790,75.010529,259.232330,120.507874,,,
330,0,157.008240,91.011368,119.814415,96.878853,181.709641,174.178436,86.654953,63.808552,118.081696,83.570999,251.765518,166.279495,74.640312,256.631592,119.520256,,,
331,0,157.090805,91.018143,119.784691,97.088493,181.623062,174.527100,86.882668,63.771828,118.003067,83.139297,251.854218,165.454239,74.460365,254.239731,118.326393,,,
332,0,157.187439,91.050629,119.790039,97.237938,181.598633,174.820877,87.055405,63.784756,117.970856,82.605309,251.900070,164.330414,74.226456,251.673676,116.974236,,,
333,0,157.275284,91.001350,119.704880,97.441383,181.610550,175.101181,87.213882,63.788704,117.903839,82.040688,251.821609,163.129623,74.053360,249.080246,115.654945,,,
334,0,157.336655,90.999924,119.572540,97.680534,181.546463,175.342300,87.316345,63.821987,117.820511,81.583778,251.696259,162.038635,73.955772,246.504776,114.638222,,,
335,0,157.365341,91.025696,119.332558,98.021294,181.426697,175.563812,87.400597,63.820637,117.601593,81.288177,251.470596,161.113663,74.013992,243.977417,113.851074,,,
336,0,157.436752,91.017899,119.087151,98.322136,181.250229,175.791641,87.508583,63.859703,117.299850,81.087822,251.278076,160.150604,74.195648,241.278748,113.221924,,,
337,0,157.455658,91.068840,118.922188,98.626755,181.103409,176.157928,87.553368,63.971966,117.019730,80.701530,251.003952,158.850082,74.506676,238.047745,112.549431,,,
338,0,157.510040,91.129578,118.855888,98.993561,181.004425,176.664673,87.657845,64.008415,116.829857,80.316826,250.474030,157.337036,74.858238,234.507431,111.657417,,,
339,0,157.550949,91.243584,118.792725,99.363937,180.870834,177.245895,87.734596,64.134285,116.771912,79.719193,249.705185,155.625854,75.069344,230.639099,110.821251,,,
340,0,157.680939,91.349007,118.811279,99.662453,180.854919,177.861115,87.875191,64.337662,116.810478,79.032944,248.742691,153.574844,75.215744,226.579254,110.131874,,,
341,0,157.800659,91.457718,118.925255,99.852921,180.906189,178.396057,88.065033,64.532356,116.836853,78.235268,247.611389,151.351395,75.590683,223.016525,109.206413,,,
342,0,157.905212,91.536072,119.009247,99.995651,180.919876,178.910675,88.297401,64.633316,116.890755,77.542542,246.253845,149.021545,75.875580,219.612473,108.201332,,,
343,0,157.996307,91.641441,119.014076,100.060432,180.840286,179.265656,88.436104,64.779785,116.987556,77.210472,244.910507,146.912964,76.036514,216.019867,107.847054,,,
344,0,158.084229,91.761688,118.876213,100.128578,180.649155,179.446732,88.588455,64.888863,116.970345,77.076866,243.637146,145.062897,75.658005,211.974426,107.488205,,,
345,0,158.021484,91.856056,118.659630,100.152512,180.440796,179.538391,88.764206,64.990768,116.851761,77.075615,242.537170,143.454361,75.796349,209.395477,106.863098,,,
346,0,157.995926,91.932816,118.510651,100.129059,180.324356,179.488022,88.895378,65.063812,116.594116,77.067497,241.581360,142.034714,75.854141,206.986816,106.511864,,,
347,0,157.977402,91.977844,118.503403,100.146324,180.319031,179.254974,89.082428,65.182953,116.431961,76.967186,240.893723,140.653625,75.850052,205.108978,105.739670,,,
348,0,157.990097,92.044632,118.623199,100.137390,180.607117,178.969009,89.284729,65.246651,116.330223,76.780678,240.333755,139.142776,,,,,,
349,0,157.989548,92.061287,118.670753,100.129715,181.127701,178.509415,89.489006,65.313248,116.333679,76.517479,239.858780,137.408310,,,,,,
350,0,157.973083,92.134895,118.658356,100.147018,181.794022,177.909973,89.702362,65.364311,116.434158,76.133904,239.344070,135.371750,74.805206,199.642944,101.360245,,,
351,0,157.951553,92.211868,118.522484,100.167366,182.551544,177.150177,89.922897,65.498672,116.648857,75.940315,238.941605,133.326202,,,,,,
352,0,157.949646,92.316589,118.297913,100.206306,183.359955,176.290802,90.158333,65.679436,116.825859,75.580185,238.837982,131.581940,,,,,,
353,0,157.879166,92.448036,117.931938,100.128479,184.091949,175.366486,90.213654,65.679428,116.971832,75.375832,238.796860,129.862885,,,,,,
354,0,157.750534,92.612061,117.506912,100.038300,184.714661,174.446732,90.294769,65.813652,116.901016,75.444008,238.600662,128.158783,,,,,,
355,0,157.636658,92.764969,117.222900,99.847672,185.315384,173.482559,90.346237,65.918938,116.703255,75.414284,238.667282,126.450134,,,,,,
356,0,157.517822,92.859108,117.136543,99.706314,186.078613,172.491272,90.408859,66.183922,116.464325,75.296494,238.734772,124.728333,,,,,,
357,0,157.425095,92.981354,117.062012,99.689255,186.889999,171.506561,90.321640,66.185928,116.306717,75.238205,238.884857,122.818085,,,,,,
358,0,157.342941,93.071014,117.090263,99.695732,187.789169,170.362076,90.250031,66.237213,116.217590,75.077774,238.996201,120.899788,,,,,,
359,0,157.280792,93.146698,117.039551,99.774529,188.600204,169.270493,90.235512,66.348198,116.132248,75.009460,239.115417,119.210945,,,,,,
360,0,157.254333,93.251152,116.788918,99.826172,189.308273,168.322098,90.215500,66.463547,115.989662,75.026649,239.192688,117.639626,,,,,,
361,0,157.139893,93.439796,116.407616,99.817154,189.939377,167.392456,90.199387,66.657257,115.806549,74.951202,239.237595,116.185524,,,,,,
362,0,157.076050,93.643097,116.176331,99.910011,190.582779,166.452255,90.167328,66.784866,115.739319,74.924736,239.268036,114.800194,,,,,,
363,0,157.061279,93.718033,116.015457,100.044731,191.136490,165.534439,90.127701,66.915436,115.797165,74.866394,239.258759,113.503876,,,,,,
364,0,156.977905,93.827599,115.801018,100.128960,191.653290,164.747742,90.059875,67.022141,115.806778,74.910141,239.335724,112.369812,,,,,,
365,0,156.919098,93.928558,115.656929,100.167442,192.138184,164.094727,90.012703,67.173851,115.724907,74.899277,239.395477,111.273010,,,,,,
366,0,156.869019,94.052116,115.674500,100.085571,192.666214,163.421097,89.972130,67.268753,115.640709,74.923752,239.456894,110.240868,,,,,,
367,0,156.818863,94.128822,115.682373,100.059433,193.076553,162.830505,89.842239,67.383949,115.633621,74.716141,239.500717,109.296402,,,,,,
368,0,156.763931,94.241524,115.685059,100.005440,193.501282,162.265381,89.814056,67.452332,115.549438,74.491478,239.358505,108.315529,,,,,,
369,0,156.685822,94.355026,115.675056,99.940804,193.876358,161.744125,89.729515,67.544762,115.539864,74.921104,239.423569,107.517082,,,,,,
370,0,156.608093,94.417801,115.647980,99.843086,194.218582,161.297012,89.671188,67.630867,115.476028,74.772369,239.507187,106.754990,,,,,,
371,0,156.582962,94.428299,115.639885,99.761932,194.487579,160.854019,89.558998,67.652466,115.457695,74.793335,239.451645,106.058350,,,,,,
372,0,156.538055,94.497940,115.580643,99.654259,194.674698,160.490631,89.460876,67.684242,115.444366,74.770859,239.420792,105.482330,,,,,,
373,0,156.487381,94.532799,115.502380,99.573608,194.798935,160.192932,89.408257,67.643204,115.311829,74.777756,239.450378,105.082405,,,,,,
374,0,156.449051,94.570679,115.421738,99.519768,194.912506,159.964569,89.328583,67.748802,115.125710,75.549049,239.482620,104.839485,,,,,,
375,0,156.446259,94.566193,115.403152,99.543564,195.002762,159.771774,89.297157,67.779640,114.962868,74.951263,239.506271,104.563019,,,,,,
376,0,156.418640,94.622078,115.386497,99.619080,195.054520,159.643356,89.213379,67.795448,114.938133,75.661026,239.509247,104.456970,,,,,,
377,0,156.422379,94.610046,115.342346,99.705627,195.103058,159.664169,89.196045,67.857338,114.963249,75.778419,239.509567,104.523827,,,,,,
378,0,156.450378,94.613930,115.289879,99.772888,194.985168,159.789200,89.185120,67.850563,115.017105,75.830475,239.602615,104.708710,,,,,,
379,0,156.407898,94.669693,115.321281,99.815414,194.935471,159.997650,89.215462,67.849014,115.057098,75.828491,239.617874,105.039528,,,,,,
380,0,156.410614,94.602303,115.398247,99.882797,194.852203,160.239166,89.175758,67.818855,115.124603,75.709251,239.699036,105.406380,,,,,,
381,0,156.427628,94.602409,115.499458,99.944122,194.741821,160.518127,89.217560,67.821541,115.251503,75.146553,239.794449,105.798096,,,,,,
382,0,156.463623,94.596138,115.552200,99.992126,194.640686,160.775818,89.277573,67.801041,115.300346,75.903473,239.853195,106.230255,,,,,,
383,0,156.459702,94.613220,115.592163,100.060020,194.567307,161.038025,89.321594,67.780098,115.331978,75.866646,239.912872,106.616776,,,,,,
384,0,156.521255,94.607170,115.625732,100.109505,194.463943,161.272568,89.325851,67.790253,115.436401,75.894821,239.922546,106.969940,,,,,,
385,0,156.563049,94.567924,115.664940,100.163048,194.331497,161.485443,89.326988,67.769455,115.476593,75.254341,239.963165,107.289703,,,,,,
386,0,156.560226,94.528419,115.643021,100.252365,194.207184,161.735382,89.387436,67.736183,115.489227,75.506805,239.878525,107.656311,,,,,,
387,0,156.617157,94.511536,115.582764,100.332672,194.007828,161.996658,89.413773,67.681969,115.453384,76.112022,239.905487,108.130447,,,,,,
388,0,156.636841,94.471275,115.594704,100.375893,193.840027,162.219681,89.424454,67.637283,115.454269,76.184624,239.951981,108.517334,,,,,,
389,0,156.666321,94.415154,115.686249,100.503967,193.659378,162.509064,89.462769,67.581062,115.556808,76.160950,239.949646,108.945847,,,,,,
390,0,156.765518,94.318176,115.746574,100.602859,193.461411,162.807587,89.515884,67.515549,115.623070,76.150421,239.834824,109.392342,,,,,,
391,0,156.815384,94.272209,115.749939,100.749779,193.252899,163.152878,89.567307,67.433411,115.669220,76.170242,239.808441,109.979027,,,,,,
392,0,156.835007,94.164734,115.750793,100.853493,192.958878,163.595383,89.592842,67.362961,115.789757,76.128281,239.796783,110.654251,,,,,,
393,0,156.869232,94.064568,115.810852,100.928368,192.614914,164.057037,89.645622,67.240829,115.917610,75.543938,239.697556,111.330513,,,,,,
394,0,156.921906,93.947945,115.940834,101.009521,192.312637,164.564011,89.702461,67.116928,115.924568,76.150444,239.709030,112.202812,,,,,,
395,0,156.997208,93.904373,116.087105,101.094429,191.988678,165.094803,89.741928,67.018295,116.072411,76.136185,239.699875,113.062599,,,,,,
396,0,157.001129,93.813667,116.158882,101.182877,191.602386,165.659805,89.786026,66.877991,116.145790,76.143509,239.667343,113.949539,,,,,,
397,0,157.034164,93.707878,116.259331,101.228256,191.187881,166.218216,89.783722,66.814842,116.205452,75.939621,239.723648,114.962868,,,,,,
398,0,157.102173,93.627663,116.391579,101.343178,190.654739,166.918152,89.758385,66.711777,116.290176,76.214615,239.653656,116.034828,,,,,,
399,0,157.204941,93.547691,116.466690,101.347313,190.123077,167.583023,89.736633,66.656464,116.250824,76.232742,239.691757,117.240623,,,,,,
400,0,157.310684,93.496422,116.533089,101.372498,189.539001,168.304337,89.697929,66.582695,116.145844,76.413002,239.771286,118.609512,,,,,,
401,0,157.401672,93.430710,116.700829,101.376434,188.911499,169.056458,89.779961,66.447510,116.066185,76.510490,239.801819,119.907997,,,,,,
402,0,157.513718,93.308228,116.922714,101.388168,188.376678,169.828918,89.763107,66.311447,116.030769,76.390350,239.972107,121.292427,,,,,,
403,0,157.683151,93.235542,117.180008,101.440399,187.755173,170.745102,89.765495,66.220886,116.082001,76.569771,240.123276,122.832855,,,,,,
404,0,157.820053,93.169853,117.343895,101.485069,187.043594,171.658203,89.798683,66.146011,116.112381,76.972511,240.156372,124.459137,,,,,,
405,0,157.934387,93.084091,117.470634,101.499290,186.256210,172.658401,89.853668,66.060081,116.067993,77.221588,240.343918,126.412659,,,,,,
406,0,158.106979,93.002258,117.660042,101.611725,185.296570,173.770584,89.991203,65.901726,115.984070,77.427658,240.523834,128.593521,,,,,,
407,0,158.316071,92.915779,117.910698,101.709122,184.388519,174.903625,90.107674,65.829193,115.914978,77.666702,240.714432,131.050888,,,,,,
408,0,158.518707,92.791298,118.133293,101.993637,183.380829,175.996017,90.262840,65.714996,115.827927,77.799507,241.013031,133.680252,,,,,,
409,0,158.727371,92.677711,118.451805,102.142075,182.438934,177.166122,90.470367,65.617722,115.845322,78.181427,241.299622,136.415619,,,,,,
410,0,159.002029,92.548767,118.738205,102.436424,181.589371,178.229202,90.693367,65.551407,115.994026,78.477684,241.532150,139.036713,,,,,,
411,0,159.183563,92.381554,118.978279,102.851212,180.821014,179.247849,91.001572,65.547920,116.213806,78.603226,241.645493,141.602325,,,,,,
412,0,159.326859,92.233429,119.149200,103.236015,180.112823,180.170837,91.173477,65.454422,116.523613,79.015312,242.112671,144.406540,,,,,,
413,0,159.486969,92.082191,119.308632,103.697426,179.394226,180.969315,91.272873,65.199089,116.817268,79.271828,242.493393,147.261063,77.497871,210.835495,108.987701,,,
414,0,159.640060,91.873535,119.462486,104.111824,178.775085,181.627579,91.398369,65.093018,117.132355,79.563301,243.022339,150.170105,78.202965,213.623993,111.469879,,,
415,0,159.776413,91.718102,119.635323,104.531097,178.230453,182.176834,91.504387,64.865135,117.467567,79.806496,243.561905,153.016281,78.166275,215.710022,112.139343,,,
416,0,159.885117,91.465752,119.851868,104.896187,177.781662,182.583466,91.621727,64.651489,117.785362,80.093567,244.071335,155.780212,78.398087,217.950333,113.834564,,,
417,0,160.017487,91.225204,120.042274,105.114151,177.438675,182.856888,91.635918,64.380424,118.056152,80.289986,244.589508,158.525970,78.591187,220.393265,115.579605,,,
418,0,160.116806,91.033890,120.279572,105.282143,177.133179,183.017303,91.667336,64.214729,118.255463,80.299309,244.993713,161.201630,78.607635,223.007416,117.134941,,,
419,0,160.192078,90.819031,120.410797,105.365463,176.925125,183.033035,91.625420,63.963764,118.468178,80.285423,245.294464,164.007248,78.681488,226.310150,118.546173,,,
420,0,160.216827,90.627846,120.517570,105.364029,176.711319,182.883682,91.619957,63.764385,118.554100,80.503304,245.497086,167.270599,77.945358,230.549316,120.635292,,,
421,0,160.212296,90.459625,120.569191,105.237244,176.419617,182.443634,91.554581,63.484207,118.674904,80.720634,245.079102,171.944122,76.627014,237.410126,123.747162,,,
422,0,160.200912,90.230186,120.742615,104.954559,176.240036,182.052673,91.451195,63.182503,118.847588,81.606148,244.671906,176.511536,76.352493,243.723099,127.785759,,,
423,0,160.126511,90.020805,120.912132,104.449203,176.190155,181.769180,91.359108,62.853947,119.043159,83.506004,244.152802,180.131332,76.268532,249.120163,132.021378,,,
424,0,160.015976,89.813995,121.040443,103.928627,176.203537,181.406799,91.170090,62.550388,119.177338,85.274208,243.561234,182.539307,76.743942,253.967758,135.644562,,,
425,0,159.874878,89.679443,121.222656,103.355438,176.303421,180.952057,90.943657,62.307915,119.289055,86.506271,242.922287,183.985550,76.660835,257.882996,138.818909,,,
426,0,159.692505,89.508713,121.353958,102.807663,176.471451,180.438354,90.797287,62.097755,119.276123,86.539803,242.233078,184.783386,76.526611,261.653839,141.661270,,,
427,0,159.591202,89.460342,121.519249,102.186066,176.737473,179.849716,90.663490,62.001560,119.199455,85.709961,241.598221,185.081223,75.535599,264.745087,144.408844,,,
428,0,159.444702,89.380981,121.681717,101.536087,177.054184,179.223450,90.508598,61.877903,119.154503,84.757622,240.989700,185.119095,74.514168,267.655518,147.201431,,,
429,0,159.318817,89.392693,121.694443,100.689423,177.407089,178.499969,90.412529,61.854836,119.087517,84.047203,240.588120,184.876419,73.742401,269.998260,149.823837,,,
430,0,159.155731,89.436630,121.674126,99.880157,177.718216,177.877090,90.275459,61.943634,119.028725,83.307999,240.293793,184.359329,72.883606,272.174042,152.685349,,,
431,0,159.032806,89.482437,121.639252,98.961830,178.027679,177.164276,90.179611,61.983757,118.861404,82.375549,240.093552,183.633713,71.916794,273.797394,155.311966,,,
432,0,158.885361,89.574608,121.640503,98.102432,178.338776,176.419357,90.205643,62.047955,118.649879,81.699181,239.891129,182.861313,71.238396,275.035614,158.079514,,,
433,0,158.677734,89.661377,121.724648,97.192307,178.790131,175.631607,90.163361,62.095871,118.472633,81.285683,239.862289,182.066574,70.978951,275.970886,161.010727,,,
434,0,158.511749,89.745583,121.846275,96.421951,179.311111,174.852951,90.109207,62.112312,118.430481,81.461403,239.948822,181.254852,71.615318,276.755829,163.875732,,,
435,0,158.335526,89.796623,122.088219,95.879837,179.928497,173.947479,90.076775,62.196793,118.436760,82.037941,240.139191,180.389954,72.973595,277.273743,166.404663,,,
436,0,158.214417,89.793625,122.423149,95.652664,180.643448,172.961014,90.104538,62.137638,118.433693,83.227890,240.576370,179.405640,75.077934,277.749329,168.440674,,,
437,0,158.117325,89.734001,122.755501,95.368118,181.433487,171.912277,90.148666,62.101589,118.642540,84.907249,241.097580,178.350204,78.083885,278.244629,169.961395,,,
438,0,158.049942,89.704590,122.982071,95.051636,182.225616,170.806717,90.185570,62.048870,118.930038,86.984970,241.597549,177.209045,81.891655,278.643127,171.005127,,,
439,0,157.993195,89.657791,123.139214,94.923859,183.022873,169.671371,90.210457,62.054501,119.208870,89.367859,242.034424,176.032700,86.078423,278.879425,171.596085,,,
440,0,157.930023,89.698570,123.245148,94.927917,183.968109,168.396362,90.234581,62.055038,119.381065,91.690643,242.381287,174.566635,90.231598,278.975983,171.690582,,,
441,0,157.907272,89.789032,123.299141,95.011116,184.888351,167.031570,90.363754,62.097775,119.506767,93.683136,242.758926,172.742905,93.677322,279.020325,170.932800,,,
442,0,157.955902,89.834045,123.229782,95.147385,185.825348,165.542038,90.409546,62.221676,119.586372,95.031906,243.341019,170.571106,96.182007,279.092133,169.483093,,,
443,0,157.988159,89.911453,123.061897,95.242233,186.736267,164.030594,90.510101,62.348293,119.643845,95.916473,244.090073,168.060730,97.926216,279.267365,167.468719,,,
444,0,158.074142,90.069839,122.752800,95.359940,187.750610,162.291443,90.635239,62.475105,119.556259,96.579849,244.737640,165.401154,99.369003,279.370392,165.333038,,,
445,0,158.161606,90.285263,122.409149,95.496635,188.777603,160.374969,90.754280,62.676689,119.280632,97.242531,245.447159,162.651138,100.580734,279.481445,163.058929,,,
446,0,158.272186,90.525208,122.056366,95.625443,189.772186,158.315277,90.889984,62.887901,119.009315,97.662247,246.243942,159.756363,101.393333,279.803864,160.480743,,,
447,0,158.389343,90.791580,121.693459,95.751671,190.877319,156.202606,91.052406,63.165798,118.804062,97.831543,247.080551,156.704483,101.855637,280.185669,157.635208,,,
448,0,158.490829,91.073936,121.333336,95.848206,191.858475,154.041885,91.217239,63.452332,118.631569,98.003021,247.895355,153.567383,102.272461,280.646881,154.596008,,,
449,0,158.568314,91.432068,120.991684,95.902977,192.811127,151.972488,91.299065,63.746460,118.435127,98.068634,248.695526,150.450211,102.544044,281.131683,151.373795,,,
450,0,158.532074,91.756622,120.589310,95.933784,193.716537,150.040955,91.327301,63.994320,118.297264,98.301399,249.399063,147.465881,102.923134,281.506104,148.249268,,,
451,0,158.489685,92.083260,120.240250,95.878792,194.476715,148.277267,91.371559,64.273056,118.128357,98.501518,250.044830,144.818863,103.362663,281.908508,145.329300,,,
452,0,158.472092,92.400421,120.007050,95.870850,195.150009,146.794373,91.429428,64.507843,117.873314,98.624092,250.579712,142.515366,103.595322,282.287781,142.778610,,,
453,0,158.460205,92.612656,119.815491,95.897812,195.649902,145.730545,91.518600,64.704437,117.622414,98.740181,250.992661,140.756989,103.786293,282.588715,140.830887,,,
454,0,158.403656,92.772598,119.693855,95.814384,195.940460,145.075821,91.546135,64.823952,117.576897,98.780960,251.219482,139.668213,103.926956,282.816986,139.503708,,,
455,0,158.305679,92.822784,119.716156,95.711761,196.020462,144.867691,91.535240,64.811562,117.670609,98.781296,251.339859,139.181244,103.956558,282.866608,138.856216,,,
456,0,158.211258,92.817719,119.878349,95.574387,195.990189,145.045547,91.529045,64.727707,117.819382,98.708229,251.334488,139.246735,103.902214,282.928009,138.818817,,,
457,0,158.162872,92.786240,120.174347,95.487045,195.930450,145.471619,91.528709,64.698906,117.915184,98.571655,251.267670,139.704712,103.725609,282.908264,139.246307,,,
458,0,158.124435,92.700203,120.504532,95.454834,195.817581,145.995880,91.569412,64.605522,118.082359,98.340431,251.207291,140.324600,103.373581,282.890076,139.953827,,,
459,0,158.115112,92.609924,120.830048,95.375183,195.723099,146.500168,91.492149,64.531258,118.323212,98.065834,251.182312,140.951050,102.931313,282.850433,140.705505,,,
460,0,158.049515,92.485519,121.112076,95.347893,195.671738,146.929947,91.444412,64.452309,118.721992,97.884277,251.144318,141.471191,102.613266,282.776031,141.273453,,,
461,0,157.987076,92.418465,121.294540,95.353973,195.641815,147.164001,91.332230,64.447266,119.003944,97.808701,251.096756,141.718292,102.500114,282.753021,141.492737,,,
462,0,157.902878,92.392754,121.366859,95.392387,195.644821,147.256989,91.186829,64.449814,119.119904,97.834984,251.106766,141.741440,102.507446,282.750244,141.462723,,,
463,0,157.848083,92.354843,121.287041,95.425278,195.628113,147.197601,91.064316,64.462509,119.082451,97.831673,251.123123,141.622620,102.533844,282.789886,141.315125,,,
464,0,157.782776,92.354942,121.121536,95.453094,195.571533,147.077209,91.000748,64.472580,118.817879,97.863884,251.124985,141.454147,102.494705,282.783478,141.131729,,,
465,0,157.756256,92.402451,120.902550,95.488091,195.500992,147.002991,91.009804,64.476471,118.571449,97.855446,251.086624,141.347565,102.451218,282.750641,141.005890,,,
466,0,157.759369,92.363922,120.731194,95.547050,195.417007,146.905228,91.142754,64.464447,118.259659,97.842918,251.056763,141.269638,102.384972,282.780243,140.872208,,,
467,0,157.808777,92.331528,120.632462,95.611961,195.398331,146.885284,91.248428,64.438965,118.154465,97.808998,251.049637,141.163406,102.244781,282.831177,140.632980,,,
468,0,157.952286,92.261971,120.647194,95.747620,195.378540,146.911469,91.327103,64.433151,118.189713,97.788490,251.090561,141.091599,102.122116,282.914825,140.420898,,,
469,0,158.038315,92.232689,120.646248,95.883209,195.360214,147.021988,91.400887,64.442261,118.356140,97.758850,251.150635,141.092438,101.987267,283.020782,140.299194,,,
470,0,158.119186,92.200401,120.653702,95.977982,195.357605,147.165207,91.476624,64.398781,118.569008,97.722427,251.160080,141.205597,101.852341,283.090271,140.310547,,,
471,0,158.173996,92.166634,120.670128,96.058052,195.354614,147.387024,91.470665,64.354431,118.728317,97.709236,251.164795,141.408997,101.761208,283.111816,140.523087,,,
472,0,158.235489,92.169846,120.684593,96.169228,195.293579,147.599594,91.507111,64.350220,118.817474,97.733444,251.125687,141.746597,101.733047,283.127930,140.851837,,,
473,0,158.252335,92.176575,120.732719,96.241158,195.227921,147.818466,91.534859,64.335945,118.811386,97.773216,251.081161,142.057755,101.726357,283.103455,141.173676,,,
474,0,158.273605,92.140236,120.807373,96.355553,195.159607,148.016968,91.586143,64.363388,118.889618,97.837448,251.074249,142.297256,101.733765,283.153900,141.395599,,,
475,0,158.327164,92.132050,120.828995,96.431007,195.127197,148.206451,91.600586,64.354607,118.922127,97.912735,251.097229,142.491211,101.745903,283.178802,141.559082,,,
476,0,158.322495,92.130585,120.806747,96.483925,195.089661,148.369690,91.641907,64.356224,118.894753,97.928925,251.079117,142.706558,101.767075,283.196533,141.745850,,,
477,0,158.385223,92.182144,120.748077,96.526520,195.016495,148.528427,91.669022,64.405014,118.934586,97.928894,251.073456,142.898849,101.686356,283.240906,141.950668,,,
478,0,158.392624,92.182991,120.724251,96.604729,194.965469,148.719727,91.668304,64.432991,118.905289,97.823372,251.065521,143.129776,101.512817,283.276428,142.158936,,,
479,0,158.399841,92.159470,120.703430,96.593399,194.961685,148.829025,91.657318,64.431084,118.973755,97.679413,251.085159,143.293045,101.265083,283.302704,142.304169,,,
480,0,158.401993,92.157936,120.704681,96.583199,194.931976,148.970062,91.643761,64.441383,119.049713,97.585732,251.101318,143.436844,101.078949,283.347748,142.380875,,,
481,0,158.402283,92.158730,120.704346,96.579590,194.914047,149.072495,91.646362,64.422501,119.114853,97.499420,251.091324,143.481674,100.918159,283.404053,142.374405,,,
482,0,158.406174,92.124176,120.723473,96.568222,194.881516,149.132980,91.630966,64.383415,119.177887,97.414307,251.114578,143.531723,100.758743,283.457153,142.358459,,,
483,0,158.353119,92.120247,120.718102,96.510132,194.887390,149.159592,91.594902,64.414207,119.225609,97.306183,251.096161,143.527206,100.569778,283.470520,142.317673,,,
484,0,158.374832,92.116417,120.716583,96.456429,194.866058,149.199982,91.503540,64.439308,119.152565,97.170448,251.133347,143.545135,100.426941,283.520386,142.295654,,,
485,0,158.320297,92.120491,120.696831,96.412918,194.848114,149.203247,91.509552,64.370987,119.034996,97.073914,251.133743,143.545975,100.258713,283.540192,142.236649,,,
486,0,158.295166,92.181976,120.694092,96.422577,194.857635,149.219788,91.501549,64.379425,118.996696,97.038818,251.168823,143.538162,100.149879,283.601410,142.137207,,,
487,0,158.287674,92.152115,120.597931,96.448212,194.844406,149.250580,91.491432,64.410172,118.935570,97.024010,251.232834,143.526413,100.109833,283.658295,142.047775,,,
488,0,158.261475,92.176392,120.540779,96.495064,194.875244,149.348114,91.454605,64.445976,118.948700,97.059288,251.259537,143.584412,100.161919,283.739227,142.035187,,,
489,0,158.257446,92.244156,120.513931,96.501259,194.871719,149.491669,91.445244,64.464096,118.958672,97.104530,251.321228,143.700089,100.192383,283.795837,142.156189,,,
490,0,158.280609,92.255577,120.577187,96.536705,194.852036,149.694153,91.429420,64.516663,118.941154,97.165176,251.334900,143.914673,100.237350,283.867157,142.355362,,,
491,0,158.288345,92.247406,120.623459,96.630905,194.847488,149.900635,91.433990,64.528221,119.030991,97.232620,251.398361,144.162354,100.294937,283.910889,142.612915,,,
492,0,158.323563,92.253525,120.642189,96.701706,194.848465,150.122772,91.434334,64.540611,119.100128,97.320114,251.396500,144.469574,100.370872,283.915771,142.905212,,,
493,0,158.354919,92.256096,120.714142,96.826790,194.800339,150.339844,91.411087,64.572021,119.206696,97.426041,251.379044,144.739136,100.455399,283.985962,143.141785,,,
494,0,158.399857,92.242912,120.752281,96.950829,194.800385,150.567688,91.436836,64.588188,119.338112,97.556412,251.406494,145.055527,100.509003,284.063782,143.359406,,,
495,0,158.422195,92.214973,120.785210,97.050812,194.778091,150.746933,91.468475,64.608528,119.461456,97.635048,251.415436,145.367920,100.509674,284.146271,143.627258,,,
496,0,158.474915,92.237381,120.773544,97.168098,194.765915,150.926315,91.481796,64.635880,119.505615,97.673874,251.423386,145.652115,100.517433,284.211700,143.862457,,,
497,0,158.509537,92.209923,120.740364,97.311012,194.721176,151.087769,91.511742,64.621506,119.525574,97.805832,251.450653,145.833679,100.521065,284.271393,143.993698,,,
498,0,158.543976,92.211357,120.683846,97.429810,194.694794,151.219772,91.530815,64.656502,119.558464,97.936874,251.435257,146.017822,100.621269,284.332092,144.029465,,,
499,0,158.569794,92.205231,120.661377,97.498421,194.623291,151.367722,91.469177,64.623367,119.552742,98.016235,251.435547,146.187683,100.689796,284.419434,144.041428,,,
500,0,158.597198,92.161545,120.579071,97.530281,194.534912,151.580353,91.444489,64.607689,119.515907,98.104904,251.436890,146.388550,100.678726,284.517395,144.099075,,,
501,0,158.602905,92.113083,120.520088,97.527946,194.394684,151.854889,91.382568,64.539429,119.432915,98.114525,251.441650,146.717926,100.604233,284.615692,144.142349,,,
502,0,158.603607,92.056900,120.501152,97.499168,194.215866,152.231995,91.270615,64.522446,119.314644,98.021217,251.479416,147.097534,100.421455,284.735870,144.216064,,,
503,0,158.625412,92.007317,120.533752,97.438751,193.967499,152.661346,91.182037,64.421074,119.219582,97.945747,251.448303,147.682526,100.114716,284.871887,144.477951,,,
504,0,158.609406,91.923462,120.528030,97.407196,193.682465,153.168701,91.021645,64.369064,119.099533,97.818855,251.328644,148.603500,99.783775,285.006714,145.079895,,,
505,0,158.603516,91.889755,120.497665,97.421951,193.325928,153.751678,90.877792,64.261368,118.879913,97.774292,251.125717,149.874496,99.528297,285.101990,146.140472,,,
506,0,158.616379,91.823502,120.460571,97.432045,192.884720,154.472153,90.676208,64.167358,118.720261,97.873055,250.835007,151.435532,99.349319,285.164673,147.417862,,,
507,0,158.591110,91.779846,120.415718,97.489479,192.354172,155.329361,90.439995,64.131248,118.606689,97.966568,250.457138,153.261337,99.209396,285.251068,148.869354,,,
508,0,158.609009,91.712410,120.447426,97.614349,191.781418,156.364792,90.187317,64.054825,118.566994,98.205940,250.012695,155.301559,99.097122,285.286652,150.451569,,,
509,0,158.633316,91.669243,120.468178,97.828186,191.099487,157.594482,89.965172,63.984894,118.540520,98.413597,249.527252,157.526428,98.958717,285.257202,152.027954,,,
510,0,158.625427,91.575478,120.512894,97.989464,190.384277,158.883163,89.790558,64.002632,118.510666,98.552185,249.032852,159.775620,98.759850,285.225525,153.551559,,,
511,0,158.647034,91.467865,120.637543,98.133308,189.642029,160.187881,89.627235,63.968449,118.512062,98.439278,248.583405,161.839523,98.314636,285.111450,154.918488,,,
512,0,158.687271,91.402451,120.811073,98.254822,188.977676,161.455826,89.464325,63.991711,118.589203,97.966805,248.264542,163.599777,97.687393,284.957489,155.917999,,,
513,0,158.712921,91.269722,121.042473,98.211044,188.338181,162.509720,89.411224,63.970222,118.812378,97.349281,248.056778,165.022705,96.916252,284.812317,156.616455,,,
514,0,158.783401,91.131378,121.298988,98.072540,187.870407,163.407471,89.383102,63.883835,119.052895,96.644630,247.888794,166.128555,96.150215,284.648102,157.216522,,,
515,0,158.822220,90.983116,121.471115,97.936180,187.469330,163.998093,89.270584,63.720158,119.275597,96.022202,247.710098,166.942200,95.396828,284.483978,157.623428,,,
516,0,158.813644,90.825119,121.572273,97.836922,187.125885,164.296127,89.163628,63.597195,119.508606,95.432648,247.563080,167.436768,94.707016,284.436432,157.783707,,,
517,0,158.789307,90.724861,121.606171,97.652100,186.898315,164.437271,89.032425,63.438931,119.601311,94.808289,247.483551,167.622360,93.963875,284.383514,157.644638,,,
518,0,158.777191,90.637772,121.631462,97.440239,186.697678,164.395767,88.907150,63.270210,119.606590,94.081284,247.456238,167.507187,93.169060,284.348083,157.260971,,,
519,0,158.713913,90.589279,121.558327,97.088318,186.512878,164.202652,88.758438,63.136696,119.464340,93.363472,247.433289,167.259521,92.305550,284.287781,156.831558,,,
520,0,158.639694,90.513618,121.431198,96.737312,186.348694,163.889496,88.545959,63.023083,119.278999,92.611870,247.321472,166.958374,91.442909,284.168732,156.513046,,,
521,0,158.593338,90.447060,121.220871,96.475746,186.163025,163.469635,88.396637,62.920563,118.989899,91.942528,247.177917,166.651840,90.620529,284.035065,156.274994,,,
522,0,158.542709,90.431236,121.078491,96.274689,186.072113,163.068054,88.257248,62.814713,118.704483,91.280739,247.026108,166.359024,89.762810,283.893311,156.170181,,,
523,0,158.487976,90.396950,120.942833,96.119141,186.014847,162.560852,88.151741,62.646427,118.487190,90.650093,246.893829,166.004700,88.905586,283.766266,156.161316,,,
524,0,158.411636,90.367592,120.856644,95.938721,186.060623,161.973099,88.016441,62.505096,118.495026,89.949623,246.757278,165.596375,87.987274,283.650818,156.334488,,,
525,0,158.279724,90.216667,120.911591,95.818581,186.196655,161.292404,87.862885,62.339615,118.642502,89.240814,246.658844,165.115479,87.089470,283.541687,156.677399,,,
526,0,158.152466,90.074127,121.002487,95.656097,186.457001,160.426712,87.756683,62.131031,118.866425,88.530472,246.528305,164.516525,86.251129,283.395905,157.096069,,,
527,0,157.987747,89.921051,121.224739,95.442772,186.802231,159.379700,87.654549,61.940502,119.138878,87.828880,246.377319,163.753677,85.477882,283.130554,157.612442,,,
528,0,157.796829,89.801659,121.545280,95.113998,187.195023,158.295914,87.439293,61.734386,119.397606,87.159401,246.182571,162.984772,84.836563,282.799927,158.117264,,,
529,0,157.671997,89.695488,121.875328,94.711197,187.652206,157.147491,87.244293,61.586842,119.675224,86.574188,245.942963,162.073257,84.345207,282.445892,158.556046,,,
530,0,157.515686,89.620399,122.188171,94.377274,187.998245,155.945419,87.093750,61.502300,119.783783,86.115982,245.743362,161.043716,83.954384,282.004272,158.881668,,,
531,0,157.319031,89.551529,122.347961,94.080467,188.380325,154.674194,86.919868,61.401428,119.767952,85.780533,245.509216,159.943436,83.725929,281.587311,158.933548,,,
532,0,157.180801,89.532845,122.375504,93.762238,188.788528,153.343277,86.734764,61.434280,119.662346,85.563393,245.261948,158.754654,83.557068,281.099640,158.734619,,,
533,0,157.077469,89.603104,122.298988,93.504784,189.143433,151.960373,86.605072,61.385414,119.551064,85.281670,245.006210,157.412369,83.323593,280.554688,158.348251,,,
534,0,157.029358,89.628876,122.208923,93.247108,189.466980,150.513580,86.396393,61.301464,119.535378,85.089523,244.655426,156.002960,83.097427,280.020905,157.892944,,,
535,0,156.973236,89.678154,122.058136,93.040550,189.758682,149.015640,86.229988,61.375904,119.433975,84.838806,244.224197,154.564743,82.792137,279.362488,157.464615,,,
536,0,156.969727,89.711266,121.874176,92.891685,189.946060,147.578934,86.101967,61.414162,119.378120,84.532707,243.668427,153.263779,82.400490,278.648193,157.046997,,,
537,0,156.966354,89.749931,121.675941,92.745178,190.047241,146.104752,85.957771,61.461712,119.322899,84.214348,242.963821,152.043152,81.992126,277.848633,156.681854,,,
538,0,156.947601,89.781967,121.572281,92.715576,190.138550,144.649918,85.873779,61.522205,119.412064,83.998047,242.180405,150.742935,81.723709,276.972656,156.250702,,,
539,0,156.963013,89.782768,121.574799,92.960106,190.338318,143.279373,85.807312,61.607929,119.654190,84.066650,241.581345,149.328629,81.730644,276.388580,155.339615,,,
540,0,156.989960,89.794495,121.664307,93.259918,190.641205,141.799896,85.784821,61.803085,119.901878,84.474609,241.416855,147.539948,82.367340,276.213287,153.752747,,,
541,0,157.024094,89.753693,121.675858,93.848923,190.947830,140.359131,85.688965,61.884148,120.268677,85.356232,241.564682,145.541824,83.744431,276.381683,151.654907,,,
542,0,157.106842,89.806450,121.527130,94.396957,191.376526,138.952698,85.682945,62.117485,120.417351,86.719704,241.946991,143.461365,85.636925,276.711578,149.383499,,,
543,0,157.272202,89.956177,121.244202,94.890556,191.809677,137.534393,85.710297,62.311039,120.399757,87.939987,242.324921,141.435791,87.332153,277.055695,147.191956,,,
544,0,157.458160,90.178185,120.966606,95.560471,192.257370,136.015671,85.850822,62.576942,120.502571,88.918861,242.581558,139.447083,88.559830,277.337646,145.071152,,,
545,0,157.819885,90.385262,120.709846,96.165573,192.771988,134.490311,86.072929,62.954964,120.580872,89.592003,242.816299,137.361206,89.367752,277.480347,142.877258,,,
546,0,158.205887,90.664948,120.310661,96.881577,193.298965,132.977234,86.358032,63.278645,120.712891,90.238960,243.116898,135.281967,90.113487,277.714661,140.621979,,,
547,0,158.525879,90.927917,119.789597,97.545052,193.734833,131.469757,86.581543,63.661896,120.833015,90.934052,243.278564,133.245132,90.901154,277.919373,138.406097,,,
548,0,158.827682,91.173759,119.370979,98.201378,194.091522,130.191055,86.874481,64.025436,121.021820,91.749031,243.510300,131.449142,91.900749,278.118195,136.493088,,,
549,0,159.139984,91.361145,119.024651,98.830788,194.410583,129.103287,87.151840,64.356812,121.222786,92.556320,243.723251,129.997833,92.938583,278.317322,134.843948,,,
550,0,159.456406,91.568588,118.736084,99.346466,194.723114,128.258209,87.418640,64.654526,121.369728,93.237404,243.875427,128.917603,93.721863,278.516266,133.566895,,,
551,0,159.692871,91.740280,118.640327,99.748726,194.971664,127.730461,87.715729,64.889549,121.441872,93.710571,244.097290,128.082138,94.256142,278.748932,132.635544,,,
552,0,159.904648,91.868408,118.631317,100.154892,195.126846,127.449692,87.933350,65.005096,121.568695,94.094238,244.324631,127.534714,94.734962,278.979736,131.900986,,,
553,0,160.065826,91.953529,118.690536,100.418091,195.323425,127.394913,88.075562,65.090057,121.762856,94.472664,244.539078,127.363815,95.213989,279.221252,131.586319,,,
554,0,160.148651,91.992775,118.642403,100.702530,195.378571,127.577393,88.147888,65.174461,121.898186,94.831345,244.669205,127.571732,95.680580,279.374664,131.799255,,,
555,0,160.169586,92.039963,118.595200,100.804703,195.441345,127.915161,88.252357,65.231842,121.924477,95.098175,244.736923,128.136505,95.966728,279.428284,132.455643,,,
556,0,160.134415,92.089157,118.671211,100.838875,195.458755,128.349915,88.292389,65.241219,121.891556,95.176826,244.743286,128.823257,96.056328,279.460175,133.239334,,,
557,0,160.130661,92.070320,118.896866,100.877930,195.429779,128.829041,88.261917,65.214767,121.963791,95.103546,244.756897,129.432495,96.000351,279.476349,133.956787,,,
558,0,160.087128,92.062073,119.082512,100.791931,195.441315,129.202087,88.302002,65.190933,122.044075,94.978737,244.746872,129.963287,95.858482,279.438232,134.570236,,,
559,0,160.005890,92.059380,119.248802,100.643616,195.414749,129.554398,88.230278,65.210251,122.131355,94.723587,244.734955,130.360596,95.547279,279.433746,135.000549,,,
560,0,159.922516,92.058197,119.387405,100.412262,195.414581,129.751160,88.152351,65.199966,122.288467,94.410286,244.720505,130.573685,95.171516,279.465454,135.196915,,,
561,0,159.770767,92.037025,119.523354,100.177322,195.400070,129.866821,88.043823,65.170120,122.425255,94.049850,244.718521,130.607208,94.727264,279.474213,135.167068,,,
562,0,159.652817,92.027458,119.617859,99.895340,195.400589,129.872208,87.947273,65.101402,122.462639,93.675049,244.729736,130.536285,94.316231,279.503143,134.995148,,,
563,0,159.554306,92.044930,119.627724,99.648582,195.411072,129.793289,87.861671,65.084610,122.336823,93.341751,244.751038,130.371918,93.906418,279.555786,134.754181,,,
564,0,159.446930,92.043007,119.574081,99.449341,195.401337,129.655273,87.738472,65.032974,122.114197,93.049599,244.811859,130.178772,93.612373,279.597839,134.462387,,,
565,0,159.356842,92.007401,119.444176,99.287666,195.368134,129.510681,87.601425,64.973846,121.901405,92.853500,244.861282,129.989944,93.402969,279.687744,134.171417,,,
566,0,159.307312,92.037643,119.312675,99.170792,195.390549,129.351654,87.483917,65.048317,121.616943,92.742203,244.905869,129.872910,93.262405,279.752380,133.993668,,,
567,0,159.262650,92.025963,119.166191,99.112030,195.385956,129.266525,87.398705,65.046265,121.362389,92.698776,244.923141,129.876968,93.173851,279.798065,133.969940,,,
568,0,159.236832,92.022156,119.071480,99.105804,195.410553,129.283493,87.466331,65.080917,121.247345,92.618782,244.940964,129.934769,93.108551,279.846344,134.014435,,,
569,0,159.286163,92.050186,119.103905,99.094231,195.416183,129.376907,87.460777,65.093063,121.305412,92.620796,244.949966,130.028687,93.141266,279.907043,134.087128,,,
570,0,159.280762,92.040009,119.178993,99.109810,195.405655,129.606018,87.434258,65.039276,121.451317,92.630791,244.977631,130.247391,93.116707,279.939026,134.279114,,,
571,0,159.296890,92.073479,119.228790,99.116730,195.445709,129.833954,87.544121,65.057076,121.576164,92.644363,245.061356,130.487793,93.151512,280.005676,134.526260,,,
572,0,159.297592,92.100800,119.352661,99.094315,195.434509,130.135757,87.584206,65.012817,121.759575,92.630333,245.117416,130.774017,93.121681,280.111206,134.783234,,,
573,0,159.299561,92.108925,119.486397,99.052658,195.465668,130.431183,87.646820,64.985497,121.965752,92.577728,245.153107,131.116623,93.031532,280.140411,135.081955,,,
574,0,159.300522,92.055946,119.591049,98.991447,195.464767,130.731979,87.663460,64.914619,122.030197,92.508774,245.159332,131.445511,92.900719,280.161407,135.423920,,,
575,0,159.296112,92.037514,119.699821,98.980553,195.466309,130.965210,87.653152,64.933914,122.014824,92.401756,245.210419,131.758698,92.853821,280.248718,135.674805,,,
576,0,159.300873,92.043304,119.716011,98.912529,195.427643,131.111008,87.653061,64.914696,121.900749,92.341057,245.241974,131.934158,92.739990,280.251007,135.895813,,,
577,0,159.305252,92.035530,119.715515,98.914291,195.402405,131.196564,87.662201,64.890526,121.823700,92.305511,245.266617,132.080872,92.719482,280.273956,136.068130,,,
578,0,159.310364,92.062202,119.670319,98.931267,195.421799,131.231964,87.637047,64.855019,121.761597,92.327103,245.283569,132.184433,92.722389,280.300507,136.190063,,,
579,0,159.296280,92.061455,119.570686,98.904015,195.398941,131.243729,87.640167,64.912003,121.748024,92.266174,245.267212,132.195969,92.697380,280.325500,136.213257,,,
580,0,159.292419,92.097191,119.552208,98.873032,195.399734,131.220520,87.609932,64.906540,121.762596,92.262642,245.272476,132.168060,92.625771,280.323761,136.082672,,,
581,0,159.256989,92.100037,119.547295,98.852654,195.413406,131.176712,87.604668,64.901459,121.749306,92.214005,245.354858,132.056213,92.636444,280.378357,135.942444,,,
582,0,159.234909,92.102524,119.512413,98.814552,195.424149,131.184280,87.578194,64.861702,121.767303,92.173599,245.360626,132.007431,92.617393,280.392792,135.835953,,,
583,0,159.171249,92.076263,119.514359,98.738525,195.405899,131.169281,87.547424,64.864464,121.743797,92.123238,245.363281,131.975266,92.576401,280.421936,135.775787,,,
584,0,159.124695,92.069580,119.572227,98.647842,195.381561,131.187027,87.495918,64.804977,121.685951,92.043762,245.380249,131.980423,92.509109,280.442078,135.752655,,,
585,0,159.099258,92.007172,119.622925,98.553123,195.376724,131.212830,87.478104,64.769386,121.640282,91.929817,245.427475,131.978134,92.407547,280.467590,135.688629,,,
586,0,159.054840,92.012276,119.654922,98.497330,195.386566,131.282516,87.421791,64.753510,121.573395,91.873085,245.421677,131.987747,92.305733,280.480316,135.738663,,,
587,0,159.005447,92.031288,119.670593,98.432236,195.357986,131.327209,87.387459,64.743141,121.512001,91.783417,245.468964,132.066528,92.180321,280.532257,135.757446,,,
588,0,158.986649,92.034302,119.659958,98.356720,195.353699,131.436707,87.366684,64.707726,121.434998,91.646065,245.491608,132.178467,92.057220,280.544891,135.859924,,,
589,0,158.973389,92.040520,119.656570,98.299469,195.362976,131.515076,87.333496,64.700096,121.401764,91.590355,245.498123,132.305588,91.930084,280.552216,135.989517,,,
590,0,158.941101,92.039986,119.667183,98.259201,195.322098,131.573502,87.325279,64.694260,121.421432,91.506409,245.533493,132.389694,91.846329,280.578217,136.047897,,,
591,0,158.923782,92.018921,119.713470,98.242455,195.342087,131.658920,87.335396,64.714333,121.451355,91.455246,245.532990,132.432861,91.784210,280.615051,136.086639,,,
592,0,158.920029,92.031227,119.783127,98.182159,195.368515,131.701401,87.307388,64.753799,121.485397,91.391891,245.550507,132.453293,91.714935,280.634399,136.086624,,,
593,0,158.884399,92.019524,119.780800,98.158463,195.369980,131.741760,87.315353,64.756447,121.545227,91.362793,245.573898,132.450821,91.674049,280.698364,136.024429,,,
594,0,158.882111,92.019638,119.798508,98.145500,195.371109,131.766144,87.272438,64.726830,121.581062,91.330254,245.675323,132.411133,91.636017,280.738800,135.955872,,,
595,0,158.883728,92.019600,119.780495,98.093224,195.363968,131.775879,87.261375,64.698288,121.573952,91.273552,245.699524,132.376923,91.558380,280.780396,135.829834,,,
596,0,158.881363,91.995018,119.767548,98.035248,195.324280,131.796051,87.308815,64.631119,121.501762,91.180412,245.740509,132.349091,91.438927,280.848969,135.753204,,,
597,0,158.859528,91.977364,119.729065,97.943497,195.323624,131.857437,87.244141,64.643410,121.435837,91.061348,245.803070,132.339310,91.283348,280.916718,135.616867,,,
598,0,158.836395,91.949150,119.706848,97.873299,195.263626,131.953247,87.266113,64.565964,121.314377,90.885277,245.830856,132.441101,91.056404,281.012238,135.662979,,,
599,0,158.814651,91.886238,119.633232,97.733490,195.194397,132.107529,87.226395,64.510384,121.173462,90.629951,245.796432,132.605438,90.765633,280.993530,135.869522,,,
600,0,158.782684,91.839935,119.673683,97.615593,195.105499,132.308716,87.132889,64.433075,121.053535,90.427498,245.828934,132.949356,90.456207,281.006927,136.175995,,,
601,0,158.718948,91.810341,119.715569,97.441994,195.038895,132.554657,87.124435,64.356606,120.975838,90.145668,245.798416,133.269867,90.097504,280.993958,136.487122,,,
602,0,158.666275,91.805847,119.910606,97.286835,195.001572,132.806641,87.113785,64.271095,120.920090,89.853439,245.726242,133.552414,89.756935,280.963867,136.823410,,,
603,0,158.604477,91.721405,120.042236,97.144508,194.942535,133.062149,87.067787,64.199272,121.020676,89.632347,245.706863,133.860016,89.459793,280.927582,137.074722,,,
604,0,158.598175,91.731720,120.186768,97.025185,194.906296,133.298843,87.071884,64.164261,121.123268,89.460091,245.705658,134.041840,89.235260,280.937012,137.224304,,,
605,0,158.521240,91.682449,120.266945,96.883324,194.870941,133.497101,87.011986,64.170578,121.235893,89.308472,245.708817,134.250732,89.050964,280.950897,137.366119,,,
606,0,158.412140,91.661125,120.339981,96.771271,194.852905,133.630463,86.968163,64.134811,121.339096,89.178528,245.688904,134.419327,88.912651,280.944641,137.500031,,,
607,0,158.364929,91.658310,120.386391,96.645355,194.835632,133.725128,86.904999,64.168045,121.292885,89.051682,245.693314,134.529297,88.740807,280.945099,137.582077,,,
608,0,158.282425,91.631668,120.387596,96.538879,194.801498,133.752304,86.833336,64.149879,121.215889,88.956535,245.699142,134.572311,88.619179,280.957672,137.589478,,,
609,0,158.247864,91.650787,120.454300,96.473930,194.775223,133.731964,86.750710,64.155457,121.155167,88.821365,245.673126,134.531296,88.455116,281.013031,137.537552,,,
610,0,158.191986,91.662292,120.426949,96.353279,194.771133,133.661942,86.681732,64.127449,120.978508,88.725342,245.715424,134.428818,88.386940,281.039795,137.395523,,,
611,0,158.153519,91.625984,120.405617,96.290413,194.767349,133.556564,86.589561,64.132820,120.909767,88.648392,245.796005,134.255722,88.305817,281.060120,137.200653,,,
612,0,158.141205,91.646515,120.356720,96.236603,194.781998,133.456772,86.579735,64.092499,120.799698,88.576363,245.815125,134.114227,88.216812,281.121368,137.014053,,,
613,0,158.125763,91.678207,120.304558,96.222862,194.823822,133.329071,86.542313,64.155487,120.709328,88.519577,245.839676,133.941895,88.130135,281.156158,136.786270,,,
614,0,158.115097,91.715805,120.254478,96.199341,194.830872,133.257706,86.517891,64.140465,120.676529,88.492111,245.901260,133.777374,88.037888,281.190674,136.594452,,,
615,0,158.103867,91.710251,120.215767,96.199814,194.881348,133.158752,86.546402,64.128662,120.688782,88.496185,245.935196,133.638641,88.078987,281.244781,136.394653,,,
616,0,158.145584,91.740082,120.199463,96.191650,194.890839,133.148666,86.527840,64.140854,120.710457,88.470932,246.020920,133.499908,88.088448,281.342377,136.201187,,,
617,0,158.152481,91.748314,120.163918,96.205254,194.898773,133.148468,86.560089,64.155022,120.745270,88.470161,246.096909,133.508804,88.116806,281.421783,136.082016,,,
618,0,158.148926,91.756432,120.145927,96.192078,194.945328,133.205246,86.593338,64.149506,120.753342,88.465797,246.137726,133.548309,88.081573,281.478851,136.117065,,,
619,0,158.164871,91.787582,120.149300,96.174889,194.935928,133.269577,86.535828,64.218956,120.787865,88.438057,246.163193,133.637909,88.033783,281.502197,136.219360,,,
620,0,158.165390,91.761047,120.149231,96.129074,194.910400,133.360977,86.538414,64.253288,120.789253,88.429100,246.184799,133.799133,88.022308,281.579071,136.311523,,,
621,0,158.153397,91.816727,120.179817,96.108902,194.923340,133.444397,86.528313,64.227448,120.775238,88.352905,246.222549,133.932755,87.946175,281.617035,136.415909,,,
622,0,158.148499,91.803520,120.237839,96.077904,194.933228,133.490585,86.525055,64.233376,120.755745,88.300232,246.215240,133.952423,87.857849,281.654053,136.429840,,,
623,0,158.115616,91.820534,120.258530,96.018661,194.947876,133.518509,86.495094,64.253914,120.759705,88.255806,246.294708,133.968704,87.803787,281.707153,136.364914,,,
624,0,158.083755,91.811554,120.252014,95.965523,194.948990,133.540848,86.495735,64.203506,120.819695,88.182465,246.340469,133.896530,87.728569,281.760437,136.206833,,,
625,0,158.054520,91.853050,120.273430,95.925926,194.988663,133.494781,86.486671,64.227104,120.794243,88.140114,246.410568,133.778381,87.728378,281.841187,135.992554,,,
626,0,158.039902,91.854698,120.263588,95.908783,195.048218,133.426529,86.430336,64.279968,120.760468,88.125412,246.472458,133.602356,87.721779,281.891083,135.729767,,,
627,0,158.020142,91.839912,120.251411,95.861168,195.048965,133.318832,86.428635,64.257828,120.741783,88.108124,246.536057,133.411331,87.722366,281.986511,135.444580,,,
628,0,157.987625,91.854736,120.172157,95.819199,195.099487,133.223175,86.393219,64.279938,120.642052,88.068863,246.610046,133.229019,87.655594,282.051971,135.194702,,,
629,0,158.005768,91.916069,120.131973,95.766708,195.101929,133.131836,86.369446,64.302399,120.621513,87.999977,246.681015,133.057907,87.598038,282.132751,134.940933,,,
630,0,157.989792,91.930260,120.071884,95.734322,195.115158,133.098450,86.378708,64.300514,120.643806,87.948685,246.774063,132.938309,87.530197,282.234100,134.701218,,,
631,0,157.981430,91.942215,120.003647,95.697403,195.146576,133.055649,86.331619,64.320831,120.589180,87.898766,246.842758,132.855179,87.443649,282.314819,134.535553,,,
632,0,157.955963,91.971397,119.963676,95.698296,195.187973,133.025803,86.346603,64.329323,120.565842,87.876060,246.918045,132.781601,87.400505,282.379059,134.449509,,,
633,0,157.956711,91.972130,119.963959,95.639809,195.187469,133.054428,86.331924,64.310135,120.552963,87.844528,246.958466,132.795822,87.358170,282.459534,134.423859,,,
634,0,157.956299,91.968811,119.972969,95.619049,195.216751,133.095123,86.310753,64.371330,120.511833,87.807343,247.001312,132.823807,87.300598,282.523956,134.414505,,,
635,0,157.947220,91.977203,119.996025,95.603882,195.254440,133.198151,86.301018,64.390274,120.461800,87.781876,247.093689,132.900284,87.284119,282.576019,134.439255,,,
636,0,157.965424,91.976067,120.049652,95.586723,195.228333,133.309357,86.301109,64.389412,120.539070,87.776955,247.148224,133.022888,87.316490,282.655792,134.467957,,,
637,0,157.955460,91.980301,120.067299,95.541985,195.235886,133.443298,86.288925,64.422424,120.521706,87.749695,247.213181,133.117126,87.280708,282.749695,134.511536,,,
638,0,157.957184,91.979378,120.068558,95.507256,195.251465,133.563385,86.310768,64.372566,120.531723,87.687103,247.314606,133.245300,87.163925,282.865662,134.518906,,,
639,0,157.971939,91.990509,120.060600,95.474663,195.265656,133.693024,86.380165,64.382149,120.546921,87.576836,247.412476,133.338074,87.042435,282.961578,134.479141,,,
640,0,157.965790,92.004250,120.011322,95.401512,195.283859,133.796249,86.346436,64.402161,120.575417,87.449051,247.484894,133.375702,86.909256,283.087677,134.394119,,,
641,0,157.974457,91.992943,120.081108,95.355034,195.289474,133.876465,86.363647,64.422775,120.543854,87.326286,247.581284,133.346298,86.752167,283.189392,134.274490,,,
642,0,157.960480,91.996712,120.097458,95.284271,195.303802,133.912735,86.346123,64.410225,120.543747,87.236282,247.652969,133.312164,86.652519,283.263184,134.088196,,,
643,0,157.938309,91.977531,120.062332,95.220757,195.302795,133.902237,86.295868,64.396461,120.542053,87.201286,247.770401,133.173737,86.574821,283.419891,133.882126,,,
644,0,157.936951,91.983612,120.027878,95.197884,195.327866,133.890564,86.275887,64.436974,120.406364,87.171753,247.828506,133.119446,86.561775,283.485291,133.710602,,,
645,0,157.906693,91.978867,119.962418,95.223000,195.302155,133.855255,86.263138,64.394859,120.443237,87.212692,247.876404,133.056046,86.574677,283.567230,133.543594,,,
646,0,157.904327,91.983429,119.950615,95.183372,195.322861,133.792389,86.208443,64.370316,120.364838,87.202560,247.929230,132.938477,86.624046,283.646118,133.331177,,,
647,0,157.901932,91.953896,119.936646,95.181061,195.328094,133.756165,86.212875,64.364906,120.279633,87.216942,248.031387,132.796967,86.648766,283.723877,133.027588,,,
648,0,157.902100,91.947426,119.925896,95.165627,195.341309,133.663483,86.149963,64.417336,120.246780,87.207062,248.118729,132.576614,86.639000,283.883820,132.645416,,,
649,0,157.894897,91.941109,119.870865,95.193474,195.421921,133.589127,86.131508,64.501816,120.288383,87.251717,248.227066,132.349640,86.688187,283.971771,132.279160,,,
650,0,157.892044,91.950203,119.848000,95.180153,195.387589,133.561676,86.117905,64.438332,120.270264,87.291710,248.287415,132.197037,86.705231,283.990845,131.980652,,,
651,0,157.894867,91.948868,119.850113,95.196800,195.414490,133.500427,86.147163,64.389862,120.317535,87.324402,248.357437,132.092056,86.754967,284.094482,131.782425,,,
652,0,157.893372,91.956078,119.835335,95.181305,195.458008,133.480164,86.142159,64.441139,120.324928,87.320305,248.391403,132.020844,86.719833,284.146667,131.597702,,,
653,0,157.893250,91.955505,119.836220,95.161118,195.444061,133.459930,86.119568,64.465965,120.303268,87.228210,248.440765,131.969025,86.660728,284.244049,131.435013,,,
654,0,157.890747,91.956200,119.833992,95.155624,195.427353,133.461655,86.081970,64.490585,120.240761,87.250473,248.442368,131.972549,86.651543,284.236908,131.334900,,,
655,0,157.910431,91.940666,119.843391,95.143234,195.385605,133.479538,86.125984,64.391624,120.275536,87.232620,248.427628,131.983521,86.611992,284.286926,131.289215,,,
656,0,157.926743,91.905975,119.830429,95.118507,195.382065,133.495285,86.112274,64.376640,120.168892,87.232399,248.476196,131.993988,86.605072,284.343231,131.252914,,,
657,0,157.926132,91.881760,119.830498,95.089668,195.360016,133.540314,86.123299,64.362755,120.099007,87.168610,248.485596,132.026993,86.565285,284.387115,131.206635,,,
658,0,157.881378,91.831207,119.801064,95.082069,195.344635,133.593399,86.108391,64.354103,120.099358,87.129623,248.483322,132.104126,86.527489,284.447479,131.178085,,,
659,0,157.897507,91.821045,119.800117,95.061745,195.310776,133.691925,86.079620,64.338264,120.150055,87.095406,248.553009,132.157135,86.462708,284.503113,131.138351,,,
660,0,157.897354,91.821190,119.800941,95.029617,195.325409,133.794144,86.088036,64.330719,120.075508,87.041641,248.617386,132.237717,86.413048,284.540039,131.114410,,,
661,0,157.896866,91.821495,119.800148,94.990456,195.303467,133.876358,86.086906,64.349663,120.126945,87.006340,248.654938,132.333542,86.350815,284.595947,131.139938,,,
662,0,157.870209,91.805168,119.811348,94.992104,195.305878,133.972977,86.022400,64.376106,120.099800,86.989769,248.703033,132.419846,86.316887,284.679688,131.199936,,,
663,0,157.875916,91.815407,119.880226,94.968277,195.285828,134.036697,86.046745,64.347450,120.148834,86.953346,248.722198,132.445526,86.252029,284.681000,131.169037,,,
664,0,157.840759,91.778496,119.895317,94.946617,195.311783,134.002853,86.032028,64.354729,120.087082,86.908844,248.732574,132.388519,86.212341,284.706085,131.051453,,,
665,0,157.840576,91.779099,119.895103,94.945343,195.327850,133.990219,85.983749,64.333961,120.160995,86.844193,248.778427,132.263672,86.157829,284.749054,130.907822,,,
666,0,157.822098,91.765923,119.844315,94.915466,195.333069,133.932449,85.974022,64.340500,120.151062,86.815056,248.801895,132.078217,86.080261,284.763306,130.675964,,,
667,0,157.832916,91.800179,119.794960,94.893280,195.347672,133.836411,85.966675,64.332695,120.151535,86.736130,248.836548,131.942230,85.972809,284.831635,130.443390,,,
668,0,157.826630,91.802345,119.768166,94.845879,195.321289,133.747940,85.981209,64.330551,120.175957,86.626625,248.845490,131.784485,85.839844,284.833435,130.243896,,,
669,0,157.822113,91.756523,119.717995,94.818199,195.324081,133.651855,85.929077,64.344421,120.103012,86.547699,248.875595,131.621643,85.746880,284.847809,130.025909,,,
670,0,157.773621,91.758614,119.662430,94.761024,195.375900,133.528778,85.870407,64.384415,119.983894,86.500702,248.930344,131.486710,85.746300,284.886444,129.790665,,,
671,0,157.753250,91.722565,119.666893,94.752457,195.376617,133.466431,85.800339,64.362045,119.895340,86.501015,248.964233,131.341705,85.737007,284.966766,129.508041,,,
672,0,157.735428,91.701653,119.708946,94.760590,195.392197,133.411301,85.787735,64.387566,119.829048,86.560532,249.011017,131.230881,85.778656,285.016144,129.238586,,,
673,0,157.723648,91.700912,119.682144,94.786606,195.414001,133.378113,85.725891,64.335999,119.841255,86.610687,249.049210,131.164764,85.861282,285.097046,129.069580,,,
674,0,157.721939,91.694893,119.673462,94.795944,195.392181,133.364685,85.749237,64.369186,119.881149,86.655273,249.070450,131.118713,85.927719,285.164062,128.956284,,,
675,0,157.718826,91.706116,119.650055,94.820023,195.379379,133.383362,85.731888,64.379356,119.848625,86.670586,249.048782,131.156403,85.967590,285.148529,128.921875,,,
676,0,157.720093,91.677078,119.669586,94.798584,195.368546,133.409973,85.731133,64.366417,119.832085,86.677391,249.041138,131.203842,85.981140,285.178558,128.863113,,,
677,0,157.737823,91.678284,119.665016,94.767960,195.325439,133.468521,85.691010,64.310677,119.795532,86.676323,249.065720,131.297180,85.925034,285.256531,128.882065,,,
678,0,157.749969,91.607002,119.647797,94.764259,195.315552,133.523636,85.741951,64.324631,119.801521,86.618210,249.058899,131.345306,85.884933,285.255615,128.855820,,,
679,0,157.764206,91.577049,119.654518,94.764328,195.271667,133.579666,85.721405,64.345886,119.781975,86.597229,249.060867,131.399826,85.820534,285.326965,128.817871,,,
680,0,157.746201,91.562820,119.642754,94.738464,195.277100,133.596024,85.688095,64.377556,119.828323,86.551682,249.106613,131.402802,85.741112,285.355469,128.757156,,,
681,0,157.779449,91.570557,119.625290,94.751060,195.257416,133.631317,85.700516,64.311615,119.839325,86.489090,249.169785,131.400696,85.655190,285.377289,128.668488,,,
682,0,157.781754,91.517601,119.608177,94.718224,195.277634,133.652115,85.656250,64.358871,119.832382,86.434616,249.176147,131.382538,85.546936,285.405518,128.571609,,,
683,0,157.764572,91.522499,119.611946,94.727715,195.285278,133.665649,85.713257,64.292702,119.823730,86.371758,249.153961,131.348480,85.469582,285.406281,128.491730,,,
684,0,157.766327,91.496803,119.635902,94.685501,195.265808,133.637985,85.685257,64.299271,119.764816,86.298691,249.179459,131.296295,85.410942,285.429169,128.302750,,,
685,0,157.765289,91.497131,119.635750,94.671265,195.264786,133.593185,85.648689,64.255226,119.763321,86.267746,249.230820,131.188095,85.353500,285.485077,128.081665,,,
686,0,157.767929,91.494675,119.618752,94.653091,195.301849,133.556458,85.635406,64.243744,119.779366,86.260666,249.255096,131.066422,85.364761,285.538452,127.903831,,,
687,0,157.725723,91.498375,119.561325,94.663567,195.315674,133.459854,85.614700,64.299896,119.733551,86.307686,249.313232,130.906250,85.400467,285.594421,127.693489,,,
688,0,157.713898,91.506821,119.523293,94.643761,195.337097,133.380585,85.571999,64.335098,119.684059,86.334373,249.366058,130.810379,85.476395,285.639069,127.505676,,,
689,0,157.710449,91.511971,119.507324,94.664162,195.365372,133.330917,85.520081,64.354019,119.649521,86.381767,249.402222,130.721481,85.517754,285.706604,127.296089,,,
690,0,157.688431,91.522461,119.487671,94.661919,195.364578,133.289474,85.482597,64.321732,119.607193,86.388832,249.433273,130.611862,85.578384,285.760620,127.109528,,,
691,0,157.707825,91.480904,119.473328,94.670631,195.393936,133.254761,85.485580,64.347504,119.558678,86.396980,249.463364,130.492538,85.563774,285.769867,126.931831,,,
692,0,157.720886,91.500237,119.431747,94.652405,195.392548,133.193161,85.491241,64.319771,119.481331,86.385567,249.464111,130.409882,85.567322,285.794891,126.807701,,,
693,0,157.750687,91.536201,119.409401,94.629463,195.376328,133.174500,85.506569,64.326401,119.526588,86.326218,249.502533,130.362488,85.494324,285.815338,126.706940,,,
694,0,157.798386,91.539024,119.404419,94.612755,195.349762,133.174515,85.530869,64.355057,119.509834,86.259277,249.510468,130.400864,85.366173,285.833313,126.723351,,,
695,0,157.804718,91.533356,119.400192,94.561981,195.369949,133.282120,85.530769,64.384918,119.528236,86.136627,249.545364,130.475616,85.234558,285.852722,126.766983,,,
696,0,157.800415,91.539345,119.386520,94.537689,195.342636,133.375137,85.527023,64.375626,119.564346,86.035332,249.564102,130.545303,85.083420,285.883392,126.820129,,,
697,0,157.800354,91.536171,119.387711,94.473358,195.341644,133.430649,85.524109,64.410484,119.568459,85.960983,249.580811,130.651932,84.957863,285.897369,126.872482,,,
698,0,157.786926,91.570740,119.432602,94.431511,195.343369,133.556335,85.522514,64.412849,119.566505,85.885757,249.625198,130.776398,84.856102,285.935089,127.014709,,,
699,0,157.774643,91.564560,119.440926,94.388817,195.359299,133.696945,85.483109,64.452934,119.550758,85.845413,249.693298,130.957260,84.812149,285.998810,127.144409,,,
700,0,157.741608,91.608704,119.458801,94.371819,195.351303,133.860458,85.492783,64.477097,119.570251,85.828438,249.762711,131.176804,84.799530,286.078613,127.288002,,,
701,0,157.741455,91.596169,119.508858,94.352646,195.348892,134.026489,85.491264,64.500069,119.560394,85.816254,249.826752,131.365845,84.797150,286.147217,127.451736,,,
702,0,157.712646,91.588387,119.518929,94.294510,195.333099,134.194260,85.428703,64.508736,119.570648,85.795525,249.848419,131.541092,84.780266,286.200531,127.607910,,,
703,0,157.721252,91.600037,119.564537,94.310028,195.312775,134.336533,85.429337,64.521675,119.634216,85.806923,249.847733,131.713821,84.745056,286.173462,127.764496,,,
704,0,157.709686,91.576492,119.575920,94.286552,195.297546,134.432770,85.419777,64.449120,119.703789,85.771675,249.839447,131.842789,84.720566,286.176941,127.867714,,,
705,0,157.710739,91.575790,119.575882,94.287537,195.310608,134.455383,85.424805,64.453468,119.706886,85.722672,249.852280,131.843689,84.633308,286.203125,127.861801,,,
706,0,157.707016,91.593193,119.563232,94.311668,195.325195,134.451874,85.424667,64.473526,119.720703,85.717293,249.862152,131.870071,84.607719,286.243134,127.821518,,,
707,0,157.695099,91.578354,119.521530,94.295883,195.322403,134.455933,85.389389,64.505402,119.715477,85.726646,249.860291,131.866882,84.612778,286.244049,127.804741,,,
708,0,157.694336,91.514946,119.511703,94.297531,195.306290,134.468903,85.373474,64.467949,119.742027,85.737564,249.858414,131.871796,84.640228,286.235199,127.782433,,,
709,0,157.694672,91.486671,119.501457,94.287392,195.296661,134.449753,85.382706,64.482727,119.700256,85.729454,249.862106,131.850952,84.636406,286.236938,127.773491,,,
710,0,157.692734,91.488235,119.500076,94.296158,195.257050,134.427170,85.355034,64.450920,119.662514,85.733299,249.832581,131.817871,84.673210,286.215393,127.722191,,,
711,0,157.695541,91.482719,119.516281,94.294395,195.293762,134.378784,85.317551,64.455971,119.599167,85.760880,249.841492,131.737930,84.718018,286.229828,127.607254,,,
712,0,157.715118,91.483009,119.523788,94.327393,195.291718,134.347321,85.311417,64.484940,119.607826,85.833687,249.871155,131.679871,84.791924,286.250580,127.479019,,,
713,0,157.714478,91.482491,119.523872,94.377068,195.307541,134.339798,85.340622,64.484703,119.611961,85.897049,249.886154,131.588394,84.882912,286.265472,127.349434,,,
714,0,157.745743,91.474480,119.519997,94.395813,195.309158,134.304260,85.378632,64.457939,119.657837,85.927551,249.926117,131.513550,84.924484,286.298157,127.164154,,,
715,0,157.782089,91.480522,119.485359,94.428139,195.322159,134.246674,85.394409,64.450531,119.717743,85.991150,249.940643,131.439499,84.979019,286.323547,127.041313,,,
716,0,157.819351,91.456558,119.419113,94.484077,195.303757,134.222290,85.386322,64.479927,119.721527,86.004021,249.917755,131.388626,84.982117,286.319946,126.976891,,,
717,0,157.868286,91.455345,119.383598,94.531807,195.303864,134.205063,85.438148,64.440788,119.705917,86.045685,249.942505,131.360092,85.036316,286.310333,126.882065,,,
718,0,157.917297,91.456055,119.389725,94.553490,195.279846,134.208939,85.451385,64.434494,119.726212,86.086220,249.945786,131.331421,85.045975,286.325073,126.826553,,,
719,0,157.935654,91.384979,119.352386,94.598969,195.270020,134.232803,85.501549,64.441422,119.719475,86.138565,249.969543,131.351624,85.101952,286.335022,126.794662,,,
