Trajectories
100
,,Sano:Wrist,,,Sano:MPH3,,,Sano:PIP3,,,Sano:DIP3,,,
Frame,Sub Frame,X,Y,Z,X,Y,Z,X,Y,Z,X,Y,Z
,,mm,mm,mm,mm,mm,mm,mm,mm,mm,mm,mm,mm
1,0,-134.496719,105.388008,46.759975,2.336663,70.801659,71.696854,61.735477,55.128143,66.495041,75.237694,17.570091,11.571848
2,0,-134.464325,105.404327,46.788708,2.375649,70.845589,71.732040,61.759369,55.130428,66.453369,75.231407,17.572271,11.535970
3,0,-134.442078,105.365608,46.844528,2.415481,70.828682,71.744598,61.808056,55.155373,66.465248,75.238930,17.564665,11.562938
4,0,-134.466034,105.382133,46.862926,2.476272,70.806114,71.747612,61.852329,55.149635,66.463326,75.234673,17.561775,11.499836
5,0,-134.414963,105.371155,46.920784,2.481333,70.849403,71.752106,61.878551,55.160378,66.446480,75.271759,17.575838,11.543971
6,0,-134.406021,105.417633,46.959965,2.549968,70.882172,71.752892,61.889996,55.169399,66.450500,75.290138,17.557276,11.511603
7,0,-134.404449,105.429459,46.954399,2.596910,70.871819,71.771294,61.948112,55.192081,66.449928,75.255028,17.567415,11.549412
8,0,-134.402725,105.430634,46.947723,2.612984,70.870903,71.739967,61.957207,55.186672,66.439705,75.293594,17.542824,11.565429
9,0,-134.319138,105.397316,46.953800,2.621215,70.884956,71.729927,61.962971,55.178192,66.409920,75.295761,17.540615,11.531276
10,0,-134.329987,105.403587,46.977325,2.614394,70.892212,71.731857,61.949036,55.190800,66.404099,75.280266,17.573147,11.545723
11,0,-134.445511,105.416962,46.971481,2.583539,70.926949,71.732018,61.908844,55.218220,66.431404,75.321114,17.566856,11.577495
12,0,-134.428192,105.355782,46.998566,2.618318,70.874557,71.733292,61.907635,55.192558,66.431999,75.293213,17.543501,11.572732
13,0,-134.459518,105.337364,47.021702,2.628724,70.876961,71.705025,61.879482,55.218441,66.423882,75.280510,17.542051,11.600768
14,0,-134.492416,105.277512,47.043419,2.597731,70.898270,71.733765,61.821461,55.212742,66.433952,75.301918,17.551653,11.590533
15,0,-134.509109,105.287636,47.102623,2.599641,70.910477,71.728798,61.826176,55.239521,66.429901,75.282791,17.537333,11.584317
16,0,-134.547653,105.271362,47.094482,2.597694,70.936363,71.732094,61.805325,55.259880,66.419930,75.280350,17.536600,11.607364
17,0,-134.620529,105.301834,47.104603,2.554078,70.943298,71.704506,61.810886,55.275875,66.398849,75.268532,17.539009,11.590374
18,0,-134.602112,105.300751,47.111149,2.550816,70.963348,71.701286,61.773922,55.309605,66.388519,75.228142,17.535440,11.627541
19,0,-134.593185,105.349396,47.130054,2.525841,71.027611,71.715919,61.792984,55.334587,66.388901,75.233513,17.543793,11.657687
20,0,-134.620483,105.356125,47.159237,2.535250,71.051285,71.723328,61.772526,55.344204,66.379112,75.229591,17.569332,11.642452
21,0,-134.602142,105.371559,47.144409,2.548701,71.039749,71.701775,61.785217,55.359226,66.361885,75.234390,17.564856,11.622833
22,0,-134.592239,105.337280,47.155888,2.576836,71.037407,71.709625,61.846180,55.340714,66.339142,75.226761,17.564611,11.602856
23,0,-134.529007,105.368706,47.197762,2.613000,71.062019,71.716919,61.851021,55.351036,66.351273,75.244949,17.560642,11.614969
24,0,-134.476410,105.357841,47.179344,2.642889,71.039719,71.737213,61.863266,55.368465,66.365128,75.285660,17.576187,11.609234
25,0,-134.476135,105.358650,47.179646,2.638785,71.030670,71.742851,61.886452,55.327526,66.359131,75.280457,17.579803,11.578783
26,0,-134.455917,105.299355,47.173454,2.651900,70.977837,71.734253,61.889694,55.296459,66.382294,75.296562,17.559383,11.587164
27,0,-134.430252,105.266472,47.182507,2.681553,70.960587,71.734337,61.898647,55.283730,66.383682,75.314079,17.555058,11.574013
28,0,-134.438065,105.268753,47.194633,2.645905,70.985123,71.753395,61.885456,55.284653,66.377480,75.333031,17.569464,11.591085
29,0,-134.473312,105.262398,47.208202,2.643949,70.963448,71.756920,61.919876,55.289349,66.359352,75.342491,17.581270,11.611050
30,0,-134.487320,105.252747,47.209095,2.670775,70.957314,71.742760,61.922375,55.276817,66.376839,75.343658,17.553528,11.580429
31,0,-134.466522,105.231857,47.190159,2.694113,70.973587,71.743896,61.939919,55.276134,66.367714,75.339218,17.556480,11.562253
32,0,-134.460190,105.252228,47.144009,2.662943,70.972511,71.747292,61.922146,55.329437,66.354233,75.347336,17.559805,11.600716
33,0,-134.442612,105.207977,47.166145,2.673044,70.973320,71.748878,61.880192,55.313374,66.366753,75.347130,17.561794,11.599892
34,0,-134.483856,105.212372,47.113552,2.659685,70.946030,71.765648,61.879398,55.306301,66.393082,75.331146,17.577332,11.583216
35,0,-134.472702,105.183525,47.099926,2.609291,70.936874,71.743874,61.881680,55.260670,66.400139,75.350182,17.554909,11.581002
36,0,-134.496979,105.132362,47.069237,2.620654,70.876335,71.727325,61.832073,55.266266,66.407211,75.330704,17.578535,11.614111
37,0,-134.542145,105.155472,46.992100,2.541875,70.842140,71.687935,61.783875,55.231007,66.391830,75.334633,17.579727,11.617506
38,0,-134.569107,105.126572,46.949097,2.529634,70.820946,71.679893,61.768509,55.179161,66.402496,75.329201,17.570974,11.595544
39,0,-134.561691,105.079582,46.898045,2.464547,70.818550,71.661400,61.734135,55.193356,66.387421,75.324059,17.569138,11.582234
40,0,-134.610443,105.127113,46.811943,2.441965,70.783630,71.619492,61.683090,55.191216,66.378967,75.295639,17.560995,11.580204
41,0,-134.639313,105.129349,46.734432,2.429968,70.775780,71.574402,61.646038,55.179668,66.393074,75.251045,17.547926,11.606995
42,0,-134.643250,105.153862,46.636543,2.295718,70.772308,71.569099,61.605656,55.152317,66.398979,75.258278,17.561319,11.595360
43,0,-134.642563,105.137787,46.568260,2.239375,70.724693,71.532883,61.524929,55.088917,66.423042,75.243492,17.534561,11.642280
44,0,-134.660187,105.116997,46.506248,2.181826,70.668633,71.502464,61.448727,55.057201,66.453056,75.250458,17.530369,11.651536
45,0,-134.625687,105.048569,46.409077,2.230247,70.621811,71.372253,61.401878,55.041859,66.436287,75.231712,17.534466,11.641301
46,0,-134.669296,105.088844,46.322971,2.151402,70.615021,71.333511,61.305862,54.988503,66.460823,75.233055,17.530680,11.673830
47,0,-134.745758,105.128738,46.224136,2.080745,70.603218,71.329514,61.234367,54.981010,66.495743,75.214226,17.548662,11.703323
48,0,-134.757431,105.148956,46.148998,1.984942,70.562073,71.263107,61.146805,54.960163,66.482971,75.176826,17.560951,11.700585
49,0,-134.763443,105.215904,46.019176,1.785142,70.527153,71.324295,61.085167,54.918880,66.476517,75.167999,17.570330,11.693996
50,0,-134.805115,105.309639,45.874710,1.699702,70.486443,71.287895,60.964588,54.870667,66.482285,75.143501,17.552948,11.683544
51,0,-134.792297,105.344612,45.706425,1.740700,70.475677,71.191116,60.898834,54.811455,66.513046,75.133293,17.529596,11.697297
52,0,-134.774277,105.374687,45.549603,1.608470,70.384224,71.126335,60.814205,54.769840,66.524750,75.096001,17.546017,11.700503
53,0,-134.754547,105.367111,45.318180,1.405870,70.275856,71.158669,60.693493,54.681923,66.550331,75.091545,17.528574,11.689000
54,0,-134.741928,105.342941,45.117271,1.325645,70.205009,71.111137,60.631062,54.627632,66.573631,75.095253,17.497904,11.699009
55,0,-134.819504,105.362221,44.995655,1.281614,70.142509,71.109863,60.546177,54.561405,66.593536,75.058868,17.538773,11.684797
56,0,-134.867706,105.318527,44.839500,1.178482,70.088043,71.059700,60.483952,54.504307,66.609474,75.073288,17.509447,11.692460
57,0,-134.942047,105.254128,44.696178,1.121030,70.008308,71.029610,60.406281,54.496113,66.583603,75.054680,17.536055,11.710907
58,0,-135.061829,105.263779,44.580730,1.055288,69.974396,70.971214,60.321438,54.451080,66.545319,75.023232,17.522408,11.668571
59,0,-135.135941,105.226830,44.437965,0.964989,69.921082,70.934364,60.232754,54.457539,66.576195,75.025429,17.522593,11.671347
60,0,-135.313583,105.248077,44.335297,0.893743,69.931900,70.898270,60.169224,54.442554,66.549156,75.009384,17.517981,11.645865
61,0,-135.423111,105.270882,44.190510,0.816221,69.908188,70.801537,60.078991,54.447826,66.556793,75.013680,17.520905,11.656499
62,0,-135.534027,105.305473,44.054291,0.663465,69.866646,70.778641,59.995174,54.407356,66.545570,74.968620,17.532978,11.667803
63,0,-135.648895,105.321281,43.897202,0.542530,69.845848,70.688858,59.881500,54.386723,66.576050,75.023636,17.521776,11.689456
64,0,-135.768814,105.310165,43.780262,0.435731,69.807755,70.620308,59.765820,54.347683,66.563431,74.978989,17.531805,11.692473
65,0,-135.851669,105.326218,43.626511,0.322381,69.774940,70.505852,59.610649,54.310207,66.556198,74.943985,17.565090,11.677859
66,0,-135.958847,105.296837,43.464439,0.183939,69.757607,70.437828,59.517090,54.287907,66.548119,74.946030,17.569418,11.654556
67,0,-136.063217,105.319603,43.377090,0.088659,69.737175,70.391060,59.453537,54.258877,66.550247,74.905785,17.535948,11.682250
68,0,-136.030624,105.204597,43.352718,0.045081,69.705879,70.334999,59.425732,54.281334,66.535156,74.934418,17.589428,11.672362
69,0,-136.096680,105.211098,43.389580,0.054765,69.700035,70.303719,59.441467,54.286152,66.513718,74.915421,17.567947,11.638687
70,0,-136.071396,105.124550,43.607113,0.189958,69.712410,70.336845,59.556236,54.332336,66.465736,75.011307,17.561016,11.591404
71,0,-136.129822,105.082771,44.094147,0.532525,69.705925,70.460884,59.900742,54.425446,66.446571,75.042313,17.529524,11.535479
72,0,-136.117874,105.078606,44.882305,1.183710,69.819519,70.820129,60.489853,54.545502,66.379295,75.207710,17.524313,11.483661
73,0,-136.128036,104.992012,46.148247,2.205198,69.988411,71.445152,61.431801,54.696163,66.360229,75.412781,17.563473,11.301656
74,0,-136.308411,105.057137,47.885815,3.504103,70.129616,72.546516,62.715210,54.926888,66.305725,75.749054,17.518753,11.160717
75,0,-136.488022,105.254730,50.181187,5.223676,70.178986,74.094116,64.075912,55.006153,66.431419,76.388611,17.437616,11.189127
76,0,-136.594284,105.775887,52.727123,7.109368,70.030197,76.327408,65.731369,54.652119,66.942001,76.721123,17.180580,11.343287
77,0,-136.439346,106.373749,55.675777,9.332079,69.854500,79.245132,67.464363,53.724480,67.929749,76.418854,16.744347,11.619086
78,0,-135.941284,107.287003,58.885792,11.516386,69.756218,82.919136,69.077545,52.584633,69.594208,75.782883,15.784571,12.903417
79,0,-134.957458,108.308212,62.224983,13.753423,70.023415,87.143982,70.613853,51.201260,72.483551,75.552238,14.587065,15.565437
80,0,-133.430908,109.480057,65.735802,16.014622,70.415375,92.005898,72.103951,50.006233,76.802315,76.204559,13.459320,19.908207
81,0,-131.802307,110.820175,69.506012,17.959873,70.810272,97.423744,73.705917,49.395844,82.329407,77.738098,12.392344,25.668890
82,0,-129.517746,112.024300,73.375183,19.666256,71.384605,103.328163,75.340416,48.983395,89.285469,80.445961,12.026231,32.771339
83,0,-127.175049,113.210098,77.662109,21.252144,72.107048,109.783646,77.112602,49.083225,97.364960,84.148117,12.183105,40.753159
84,0,-124.750504,114.408966,82.388199,23.623417,73.219231,116.810028,79.329895,50.200672,105.924011,88.421089,13.536773,49.409473
85,0,-121.970985,115.466545,87.255829,25.839378,74.683022,124.089211,82.024788,52.193802,114.754723,93.218018,15.462020,58.638672
86,0,-119.083405,116.685379,92.428360,28.357574,76.534081,131.724472,85.125671,54.618641,123.697617,98.358276,17.784182,68.048721
87,0,-115.839737,118.028053,97.789024,31.622082,78.726685,139.384003,88.466789,57.134949,132.663132,103.729408,20.435986,77.445213
88,0,-111.756660,119.213707,103.163696,35.206661,81.126053,147.103058,92.131020,59.840187,141.462585,109.396553,23.428377,86.708099
89,0,-107.433495,121.415199,108.549248,39.320026,83.717560,154.583664,96.139740,62.703884,150.036804,115.353333,26.569098,95.712814
90,0,-103.379585,123.208130,114.434677,43.639572,86.411751,162.128342,100.761299,65.809616,158.336716,121.580254,30.109997,104.373978
91,0,-98.940613,125.223221,120.212448,48.623959,89.186546,169.350693,105.671944,69.096214,166.283218,128.436935,33.914337,112.734711
92,0,-93.939613,127.379295,126.061157,54.066956,91.995758,176.620773,110.964073,72.492714,173.958481,135.321289,37.943321,120.662201
93,0,-88.611511,129.692261,131.711151,59.586639,94.870888,183.355972,116.452309,75.905716,181.199707,142.241882,42.066349,128.255005
94,0,-82.933250,131.939270,137.242172,65.375122,97.838173,189.608978,122.384499,79.391197,188.190140,149.871796,46.461536,135.472595
95,0,-76.905571,134.095032,142.550049,71.495049,100.852425,195.455185,128.534210,82.943771,194.632202,157.636597,50.741516,142.373474
96,0,-70.528694,136.346527,147.639511,78.033035,103.927330,200.697449,135.059738,86.575668,200.507294,165.556488,55.284779,148.456818
97,0,-63.900776,138.531296,152.590118,84.996262,107.159081,205.335648,141.991211,90.351692,205.734650,173.857391,59.733788,154.036728
98,0,-57.059177,140.771896,157.424438,92.455574,110.504166,209.340302,149.410156,94.219978,210.138641,182.526962,64.307373,158.808945
99,0,-49.927631,143.127151,161.919708,100.362068,113.937859,212.735397,157.182953,98.421432,213.635910,191.439743,69.143181,162.619370
100,0,-42.656944,145.456360,166.353485,108.286842,117.323410,215.459091,165.227219,102.706268,216.314301,200.297745,74.268745,165.461304
101,0,-35.540825,147.689117,170.620209,116.554115,120.555809,217.712769,173.434769,107.083786,218.281677,209.380508,79.504677,167.505768
102,0,-28.238583,149.801453,174.486237,124.879929,123.646408,219.413193,181.725494,111.423790,219.541931,218.358414,84.823799,168.728394
103,0,-21.330555,151.891052,178.224060,133.105621,126.689911,220.690582,190.242966,115.548729,220.338577,227.076416,89.886993,169.440720
104,0,-14.323138,153.882156,181.324966,141.308594,129.706360,221.534836,198.344879,119.463089,220.735382,235.617920,94.743027,169.718033
105,0,-7.445411,155.892471,184.380859,149.289551,132.738434,221.910980,206.400208,123.228859,220.786835,243.886749,99.361649,169.550308
106,0,-0.512655,158.049850,186.559525,157.343063,135.927399,221.917419,214.289062,126.973747,220.282547,251.971603,103.822548,169.009521
107,0,6.771793,159.913681,188.915512,165.205276,139.059998,221.563782,221.985794,130.732941,219.547882,259.872498,108.318184,168.113831
108,0,13.589475,161.823196,190.844452,172.906555,142.131729,220.942627,229.502167,134.499298,218.427246,267.512634,112.590698,166.872482
109,0,20.137424,163.673492,192.457153,180.369415,145.158905,220.048355,236.781189,138.193726,217.007065,274.841614,116.850571,165.247086
110,0,26.652683,165.339005,193.736053,187.917831,148.117142,219.020569,243.807465,141.692368,215.192535,282.019440,121.058464,163.309814
111,0,32.753811,166.876694,194.766403,194.901459,150.846573,217.647690,250.643463,145.003479,212.980240,288.874023,124.510841,161.110611
112,0,38.747070,168.293152,195.483505,201.564636,153.421249,215.845032,257.273560,148.148743,210.474869,295.144958,127.609940,158.415283
113,0,44.544365,169.577133,195.865906,208.122131,155.837509,214.034180,263.723419,151.095123,207.713470,301.249939,130.641190,155.401001
114,0,50.016556,170.960510,196.311554,214.590988,158.243011,212.151337,270.024658,153.961624,204.739914,307.038788,133.329712,152.331299
115,0,55.596958,172.286057,196.478912,220.976166,160.518539,209.957764,276.123962,156.703049,201.640869,312.658752,136.079575,148.954468
116,0,61.084133,173.565826,196.417114,226.997086,162.908264,207.748016,282.041656,159.389404,198.361984,318.089172,138.680069,145.517288
117,0,66.492241,174.839523,196.172043,232.819077,165.119308,205.415756,287.791077,162.053604,195.143082,323.363342,141.147583,142.200882
118,0,71.720177,176.095551,195.856461,238.633713,167.296494,203.082352,293.270264,164.638916,191.937317,328.523376,143.726593,138.743256
119,0,76.727333,177.333618,195.380737,244.135300,169.410660,200.644485,298.475464,167.168259,188.615768,333.570648,146.222046,135.499908
120,0,81.711906,178.278885,194.794525,249.524994,171.324997,198.259583,303.606293,169.472931,185.460495,338.378479,148.673523,131.997009
121,0,86.383743,179.167297,194.151459,254.660217,172.994919,195.920547,308.566406,171.526535,182.157684,342.970459,150.948196,128.535400
122,0,90.862297,179.955475,193.471756,259.655304,174.492142,193.788513,313.239655,173.500626,178.956909,347.243896,153.068008,125.125946
123,0,95.338249,180.582352,192.682083,264.399719,175.872711,191.758438,317.693298,175.275696,175.951324,351.325409,155.238495,121.785797
124,0,99.480469,181.191437,191.876480,268.923004,177.240570,189.940933,322.030731,176.679276,172.671249,359.017120,160.691681,119.245651
125,0,103.517593,181.750977,191.043304,273.123840,178.302444,187.604294,326.175995,178.768967,168.457245,368.393738,167.904648,120.318047
126,0,107.471245,182.438324,189.955276,277.310486,179.056290,185.380539,329.588898,183.615051,165.842651,373.874786,173.160965,119.642349
127,0,111.320267,183.004532,189.097717,281.473389,180.323685,183.725632,333.402252,186.105026,163.832138,378.726013,177.100098,119.081894
128,0,115.243965,183.463699,187.904327,285.563477,181.814926,182.076553,337.103607,187.740677,161.796936,383.099976,179.865204,118.088264
129,0,119.415749,183.665756,186.612350,289.597015,182.745560,180.374405,340.755890,189.437744,159.712311,387.291473,182.423981,116.916451
130,0,122.953926,184.127899,185.312012,293.329132,183.521469,178.621429,344.218475,190.689926,157.420639,391.172974,184.332855,115.419861
131,0,126.402496,184.625900,183.988663,297.024414,184.223068,176.748840,347.590118,191.848587,155.135437,394.548828,185.897446,113.563881
132,0,129.758835,185.023956,182.531052,300.377777,184.668335,174.890976,350.682587,192.957794,152.870758,398.034882,187.533066,111.899338
133,0,133.031631,185.361832,180.998169,303.715057,185.070953,172.796463,353.734436,193.870621,150.547516,401.241974,189.134491,110.136513
134,0,136.171036,185.585968,179.378265,306.891052,185.395874,170.547562,356.683716,194.602692,148.132156,404.471313,190.607788,108.278069
135,0,139.205612,185.735519,177.767792,309.920074,185.596786,168.178711,359.233368,195.209854,145.454758,407.209045,192.022766,105.881691
136,0,141.849243,185.674667,176.130508,312.540131,185.629242,165.577454,361.650116,195.546371,142.688187,409.528625,192.902008,103.266708
137,0,144.297745,185.405655,174.506088,314.898315,185.494492,162.910995,363.823029,195.703354,139.892471,411.575958,193.550003,100.405052
138,0,146.414276,185.042374,172.724442,317.031097,185.298141,160.160080,365.601562,195.788498,136.916168,413.456604,194.072861,97.461159
139,0,148.406830,184.540604,170.954346,318.801270,184.936813,157.179947,367.145660,195.792542,133.943893,414.988464,194.312241,94.372269
140,0,150.122910,183.912277,169.048233,320.339783,184.643707,153.950912,368.458344,195.705109,130.789337,416.447601,194.308395,91.256676
141,0,151.725830,183.369080,167.026047,321.782745,184.386978,150.670181,369.730988,195.298706,127.444801,417.818634,193.932770,87.869591
142,0,153.360291,182.779129,164.962891,323.091553,184.058197,147.114639,370.954712,194.654739,124.032204,418.906097,193.227631,84.007927
143,0,154.876495,182.141739,162.658508,324.273254,183.616669,143.500458,372.102600,193.722168,120.336891,419.847351,192.052643,79.986412
144,0,156.243668,181.575897,160.255768,325.420776,182.913086,139.694199,373.091980,192.464386,116.358002,420.745026,190.623077,75.800949
145,0,157.507034,180.902527,157.744141,326.314972,181.950714,135.752060,373.845734,191.105835,112.296432,421.464874,189.056198,71.359917
146,0,158.598160,180.305069,155.097534,327.101410,180.831512,131.838486,374.437805,189.560501,109.277039,422.602844,187.676300,68.378738
147,0,159.496597,179.617798,152.339676,327.553131,179.837692,128.225464,374.835327,188.237366,107.216202,424.035339,186.899734,67.207626
148,0,159.946014,179.042953,149.427734,327.670502,179.572571,125.190857,375.083771,187.762939,104.882477,424.917969,186.193481,65.126877
149,0,160.092865,178.719650,146.440689,327.679260,179.914673,122.854996,375.456665,187.712570,103.348816,425.534943,185.739502,63.417709
150,0,160.016479,178.642136,143.631134,327.402893,180.150574,120.955856,375.610718,187.907730,102.711258,425.964172,185.535599,62.322735
151,0,159.659317,178.707565,140.831757,326.936646,179.979248,119.461128,375.535492,187.944290,102.629532,426.100708,185.397781,61.317165
152,0,159.246719,178.916733,138.206894,326.304749,180.019104,118.074554,375.415527,187.924789,102.462387,426.070129,185.039169,60.231880
153,0,158.768921,179.188004,135.825684,325.842682,180.684067,116.736862,375.305908,188.232605,102.113823,425.934509,184.682587,59.091377
154,0,158.582809,179.553558,133.612305,325.365479,181.326111,115.436226,375.211578,188.738068,101.793236,425.873932,184.581406,58.154362
155,0,158.601593,179.901291,131.604630,325.114868,181.561554,114.301315,375.172516,189.036896,101.452026,425.479950,184.506561,56.822201
156,0,158.762146,180.160721,129.784561,325.073822,181.558273,113.232170,375.316345,188.841553,101.191528,425.405182,184.312729,55.948971
157,0,158.943115,180.410065,128.350494,324.973358,181.538010,112.411110,375.563446,188.501175,101.053001,425.292145,183.935730,55.192726
158,0,159.313583,180.666214,127.238480,324.967163,181.675705,111.959007,375.930206,188.373367,100.982414,425.159973,183.497437,54.710625
159,0,159.660629,180.975159,126.403854,325.091278,181.943817,111.895378,376.355316,188.352936,101.112770,425.113953,183.519287,54.105995
160,0,159.816956,181.259094,125.998077,325.332703,182.324142,112.225639,376.904205,188.347382,101.396660,425.042297,183.046005,53.876976
161,0,160.071136,181.687103,125.840843,325.660370,182.690430,112.958961,377.537415,188.399261,101.741676,425.000977,182.761292,53.684162
162,0,160.382172,182.179352,126.077370,326.007202,182.980469,113.746681,378.237366,188.278671,102.215363,425.046967,182.403198,53.568672
163,0,160.923279,182.703751,126.454842,326.529297,183.260620,114.647095,378.915680,188.022049,102.572441,425.300140,181.971710,53.704781
164,0,161.568115,183.181534,127.006767,327.192780,183.595413,115.591354,379.683197,187.796982,102.949547,425.816223,181.414612,54.105194
165,0,162.172684,183.658569,127.665817,327.740631,183.983429,116.549850,380.412384,187.592377,103.330032,426.492096,181.072861,54.670887
166,0,162.695831,184.147507,128.524796,328.255585,184.442505,117.552818,381.075134,187.336853,103.926567,427.124237,180.309998,55.646202
167,0,163.098083,184.710358,129.355835,328.696503,185.093475,118.613075,381.487122,187.257782,104.581757,428.017303,179.249908,56.978436
168,0,163.331635,185.351730,130.253693,328.923218,185.731720,119.741486,381.646271,187.096375,105.285172,428.163086,177.959732,58.422405
169,0,163.382690,186.031021,131.168304,328.712738,186.016861,120.986511,381.613342,186.437622,106.578880,428.333557,176.288803,60.333946
170,0,163.014481,186.547913,132.301117,328.167755,185.956161,122.844780,381.273041,185.785400,108.124245,427.604431,174.430557,62.250874
171,0,162.194138,186.869659,133.669891,327.426880,185.759933,124.972961,380.343597,184.666809,109.752983,426.627533,172.666595,64.079605
172,0,160.756866,186.848557,135.159134,326.047058,185.333939,127.341820,379.210876,183.592651,111.851280,425.103485,171.232315,66.277672
173,0,159.034760,186.537552,136.815567,324.439606,184.850739,129.869843,377.558563,182.886429,114.323448,423.392761,170.309021,68.794090
174,0,156.859589,186.037003,138.375854,322.350647,184.204376,132.458664,375.533081,182.090912,117.077606,421.635132,169.600372,71.782700
175,0,154.435730,185.448883,140.044525,319.997040,183.567795,135.220016,373.214813,181.485245,120.198753,419.417328,169.306946,74.943214
176,0,151.582382,184.748657,141.794769,317.174133,182.959152,138.026260,370.493103,181.071045,123.263191,417.038757,168.787811,78.575584
177,0,148.530380,184.001343,143.666580,314.130402,182.519699,140.750244,367.475555,180.711136,126.328201,414.178680,168.733307,81.763481
178,0,144.997223,183.266464,145.519638,310.735901,182.124390,143.455154,363.999359,180.552872,129.212265,410.937164,168.835754,84.683632
179,0,141.012817,182.550430,147.482315,306.955414,181.908081,146.020752,360.169434,180.633636,131.826096,407.267426,169.379257,87.138550
180,0,136.569061,181.840378,149.502380,302.832123,181.659607,148.459106,355.946320,180.795929,134.201981,402.770203,169.874313,89.272995
181,0,131.862274,181.008484,151.459351,298.362244,181.270813,150.881439,351.369843,181.000320,136.344254,398.188904,170.601608,91.254623
182,0,126.650124,180.065994,153.232010,293.506653,180.711411,153.309845,346.407440,181.150711,138.431534,393.022705,171.667160,92.816528
183,0,121.219971,179.083679,154.721252,288.393036,180.015839,155.649323,341.183380,180.979141,140.422119,387.565552,172.185394,94.425850
184,0,115.602440,178.215942,155.924988,282.946106,179.263290,157.927170,335.830383,180.497650,142.497467,381.870178,172.254807,96.110054
185,0,109.661316,177.483246,156.953644,277.416260,178.597061,159.923019,330.276550,179.906464,144.482346,376.498627,171.656967,98.075027
186,0,103.995148,176.935608,157.587646,271.731323,178.011169,161.694412,324.636780,179.317093,146.319977,370.841187,170.983444,100.080086
187,0,98.096657,176.534256,158.136917,265.923492,177.565414,163.070892,318.888092,178.770050,147.865982,365.226196,170.348007,101.905090
188,0,92.259987,176.201584,158.430466,260.140503,177.297104,164.142822,313.096893,178.378540,149.112335,359.628693,169.766418,103.311516
189,0,86.452759,175.949280,158.563049,254.406158,177.129272,164.924164,307.386902,178.190582,150.078278,353.875183,169.416748,104.221832
190,0,80.598633,175.674225,158.765091,248.729980,177.003418,165.480637,301.702820,178.118439,150.567551,348.358643,169.050217,104.881760
191,0,74.658455,175.421005,159.065002,243.211121,176.882431,165.841614,296.080994,178.000443,150.739166,342.447388,168.894089,104.775826
192,0,69.015839,175.140945,159.180298,237.856308,176.794006,165.960129,290.623535,177.917984,150.682312,336.787964,168.713333,104.434502
193,0,63.586674,174.798462,159.256790,232.717804,176.669052,166.075439,285.346619,177.816422,150.366943,331.142639,168.636520,103.784744
194,0,58.455437,174.535767,159.264648,227.665421,176.554825,166.045776,280.108368,177.948944,149.875580,325.597565,168.873917,102.978813
195,0,53.191620,174.258453,159.141373,222.298004,176.795914,165.862061,274.887238,178.261887,149.277130,320.037323,169.464737,102.049538
196,0,48.165653,173.925262,158.922882,217.271118,176.970612,165.589066,269.799225,178.757446,148.618637,314.655060,170.342072,101.105080
197,0,43.010803,173.654434,158.511169,212.361908,177.236816,165.167328,264.804108,179.372070,147.981567,309.453125,171.333603,100.239403
198,0,38.115582,173.405289,158.048706,207.426453,177.539764,164.731506,259.800781,179.984283,147.377762,304.498840,172.400925,99.563072
199,0,33.323307,173.211914,157.442230,202.428787,177.891830,164.099884,255.080963,180.684753,146.823242,299.682739,173.305573,99.001404
200,0,28.368866,173.203934,156.704971,197.629562,178.239609,163.570786,250.430618,181.282272,146.325806,295.176819,174.245346,98.587257
201,0,23.967072,173.039841,155.957428,193.061172,178.530258,162.873383,245.676392,181.841232,145.744629,290.704407,175.018570,98.208527
202,0,19.545486,172.848114,155.123474,188.466797,178.825745,161.961288,241.097214,182.279388,145.104767,286.367676,175.551331,97.786575
203,0,15.137477,172.711700,154.178314,183.953659,179.112839,160.969513,236.692139,182.654114,144.259201,282.114136,175.935532,97.065300
204,0,10.918672,172.644302,153.320679,179.572876,179.429153,159.868683,232.512482,182.898071,143.314255,277.902130,176.069397,96.086159
205,0,6.666002,172.626709,152.374680,175.480316,179.688950,158.660095,227.989990,183.195358,142.054672,273.655090,176.163940,94.731178
206,0,2.632468,172.599792,151.419937,171.601120,179.873978,157.285370,223.990585,183.435120,140.545547,269.502502,176.298447,93.047630
207,0,-1.170688,172.416794,150.542053,167.710251,180.039200,155.714371,220.164612,183.642639,138.759918,265.460327,176.420746,91.108940
208,0,-4.793827,172.309357,149.615662,164.125092,180.153229,154.002670,216.307648,183.756607,136.830933,261.576141,176.453735,89.050735
209,0,-8.268476,172.173523,148.497543,160.648392,180.371399,152.160416,212.708176,183.892349,134.789932,257.910614,176.451233,86.847466
210,0,-11.503493,172.076889,147.326767,157.354752,180.650467,150.239288,209.453262,184.078339,132.644501,254.498901,176.408203,84.640137
211,0,-14.505289,172.102448,146.061340,154.201599,180.944122,148.178360,206.251175,184.353043,130.433701,251.238937,176.453171,82.455467
212,0,-17.421894,172.117065,144.799774,151.150070,181.306824,145.998138,203.241745,184.632874,128.185425,248.138290,176.671875,80.222336
213,0,-20.106678,172.145416,143.371185,148.293076,181.594513,143.860855,200.381821,184.953583,125.989571,245.222916,176.894791,78.096970
214,0,-22.862621,172.069809,141.984543,145.576065,181.831573,141.723801,197.535202,185.325729,123.795876,242.657440,177.054214,75.997238
215,0,-25.277012,171.981949,140.574539,142.846725,182.034393,139.661224,194.807648,185.624908,121.677605,240.064835,177.237823,74.071655
216,0,-27.855789,171.860916,139.237122,140.305557,182.182877,137.683411,192.088898,185.891922,119.614403,237.426468,177.494400,72.118011
217,0,-30.219868,171.541153,137.905685,137.773499,182.202499,135.708115,189.505768,186.034088,117.638672,234.450272,177.921997,70.147369
218,0,-32.695732,171.305817,136.533981,135.388580,182.194794,133.893646,187.096619,186.136047,115.705826,231.983170,178.140060,68.136604
219,0,-34.891792,171.029510,135.279327,133.149063,182.113113,132.112518,184.731659,186.236588,113.693298,229.478851,178.357620,65.999435
220,0,-37.063824,170.754532,134.038193,131.042618,182.101120,130.293076,182.508682,186.338120,111.703957,227.111511,178.576050,63.816414
221,0,-39.088169,170.555969,132.751205,129.012161,182.099976,128.435654,180.545883,186.394943,109.657936,224.926849,178.650528,61.695251
222,0,-40.905907,170.440552,131.413635,127.215401,182.241776,126.592651,178.585281,186.484161,107.519981,222.874725,178.625320,59.468590
223,0,-42.425835,170.446030,130.124069,125.541214,182.448547,124.510895,176.871933,186.657471,105.344315,221.085236,178.532608,57.277603
224,0,-43.964306,170.499237,128.725128,123.889137,182.718353,122.509857,175.188385,186.842743,103.181961,219.295486,178.474304,55.123215
225,0,-45.218372,170.630447,127.358078,122.445061,183.000076,120.452438,173.655960,187.060257,101.041626,217.504654,178.519272,52.946011
226,0,-46.585720,170.668274,125.932541,120.776184,182.995331,118.603165,172.052902,187.274857,98.849777,216.133423,178.672974,51.193329
227,0,-47.844818,170.602036,124.695251,119.357010,182.451447,117.573784,170.720383,187.044357,97.403252,214.786636,178.386368,49.916485
228,0,-49.051945,170.326981,123.626701,117.715691,181.771637,117.080444,169.286423,186.341858,97.466217,213.764679,178.033722,50.245918
229,0,-50.655437,169.872864,122.963516,116.235733,180.868439,116.953613,167.975052,185.488495,97.542099,212.860672,177.231293,50.939842
230,0,-52.064247,169.209671,122.526222,114.982765,180.324097,116.964790,166.797653,184.762115,97.867111,211.891129,176.721313,51.367702
231,0,-53.257942,168.632401,122.225090,113.863480,179.789062,117.054657,165.711243,184.426636,98.095009,210.784470,176.326874,51.658020
232,0,-54.368790,168.191772,122.005646,112.805809,179.447968,117.162453,164.642426,183.993134,98.215660,209.768936,175.957855,51.711983
233,0,-55.279350,167.955170,121.971764,111.939026,179.281876,117.162506,163.746841,183.846283,98.195503,208.795120,175.799713,51.549149
234,0,-55.961880,167.927963,121.877487,111.139122,179.214203,117.175240,162.926239,183.942505,98.127129,207.874634,175.821533,51.395020
235,0,-56.697323,167.962173,121.838844,110.331093,179.283554,117.142410,162.061844,184.070145,97.948868,206.942169,176.033264,51.040531
236,0,-57.412693,168.012878,121.878906,109.648384,179.398254,117.074799,161.269455,184.389145,97.632736,205.903870,176.451752,50.505135
237,0,-58.057701,167.999695,121.855377,108.957001,179.559601,116.894051,160.432159,184.826279,97.178337,204.923080,177.137726,49.878242
238,0,-58.775490,167.926041,121.888847,108.142059,179.638275,116.690491,159.551239,185.326523,96.874008,203.959824,177.853806,49.464378
239,0,-59.415749,167.765671,121.890945,107.297623,179.355286,116.602203,158.491882,185.469376,96.847260,203.095428,178.517609,49.452541
240,0,-60.219254,167.477600,121.868988,106.468819,178.962845,116.414032,157.600876,185.412659,96.725410,202.137985,179.188690,49.186306
241,0,-61.163769,167.121506,121.785789,105.686440,178.456970,116.118462,156.645279,185.452927,96.500618,201.187653,179.683517,48.917286
242,0,-62.011864,166.699600,121.794655,104.929489,177.738144,115.915779,155.770874,185.146500,96.344627,200.417999,179.899597,48.807076
243,0,-62.843479,166.175034,121.812340,104.163544,176.861908,115.578102,154.922913,184.427185,96.222893,199.728210,179.706039,48.650604
244,0,-63.573032,165.580719,121.782341,103.432480,175.934219,115.238533,154.136444,183.617386,96.002800,198.860596,179.291565,48.051094
245,0,-64.201813,164.984650,121.724007,102.817337,175.044464,114.683144,153.367722,182.961136,95.629601,198.532211,178.584351,48.063236
246,0,-64.854500,164.391235,121.634964,102.227554,174.392380,114.400085,152.759979,182.127884,95.644783,198.249542,178.144089,48.290672
247,0,-65.405106,163.975723,121.517700,101.651833,173.936798,114.136780,152.227600,181.769440,95.746376,197.817505,177.779984,48.398144
248,0,-65.880791,163.719162,121.394768,101.207451,173.513733,114.109238,151.727325,181.433167,95.928513,197.393280,177.341599,48.532005
249,0,-66.189461,163.543900,121.317703,100.661415,173.152390,114.001694,151.290680,180.908310,96.071877,197.049133,176.751068,48.713928
250,0,-66.511612,163.460098,121.219482,100.228951,172.666275,113.879356,150.817917,180.357483,96.151924,196.702194,176.136169,48.892033
251,0,-66.912186,163.454132,121.133011,99.657532,172.033905,113.631821,150.191315,179.644043,96.060982,196.482056,175.170731,49.241238
252,0,-67.401810,163.380692,120.985809,99.072571,171.240997,113.210678,149.606781,178.781128,95.835640,196.134277,174.369217,49.151699
253,0,-68.109993,163.387238,120.740906,98.570389,170.401474,112.672569,149.012589,177.716263,95.320793,195.898972,173.038986,49.092930
254,0,-68.761452,163.510681,120.313736,98.143127,169.463745,112.004105,148.545029,176.476547,94.611740,195.960068,171.122711,49.014187
255,0,-69.345421,163.776443,119.835663,97.664764,168.594025,111.213753,148.202713,175.068298,93.534142,195.865448,169.080322,48.585453
256,0,-69.833328,164.121124,119.231972,96.930946,168.072235,110.347923,147.815887,173.636703,92.790596,195.881912,166.899826,48.408428
257,0,-70.251328,164.642288,118.535965,96.126877,167.473999,110.021446,147.389191,172.657974,92.776199,195.739792,165.877350,48.767159
258,0,-70.715630,165.097107,117.991493,95.567558,167.215530,109.747368,146.873352,172.420532,92.442581,195.730942,165.340851,49.232807
259,0,-71.196594,165.468689,117.543091,95.195274,167.433517,109.283638,146.491211,172.399902,91.947998,195.824936,165.072571,49.763153
260,0,-71.730370,165.784943,117.242165,94.854729,167.641632,109.025742,146.191208,172.463745,91.560524,196.009033,165.158478,50.437984
261,0,-72.074783,166.122955,117.061478,94.688782,167.790436,108.881165,145.803528,172.691193,91.436829,196.173172,165.376984,51.150383
262,0,-72.247444,166.483673,117.080132,94.662247,168.031479,108.782883,145.601761,172.821976,91.059731,196.332962,165.596024,51.899853
263,0,-72.388718,166.724228,117.318047,94.770645,168.234528,108.910431,145.607315,172.870209,90.805008,196.558136,165.825317,52.646847
264,0,-72.301491,166.866364,117.720764,94.971794,168.315598,109.219864,145.671783,172.912277,90.559402,196.765152,166.074814,53.374870
265,0,-72.133064,166.857498,118.385445,95.235252,168.569717,109.611320,145.785477,173.159103,90.384583,197.037842,166.483566,54.105534
266,0,-72.060219,166.652786,119.379135,95.711685,168.883728,110.209778,145.829086,173.646774,90.291763,197.009781,167.075958,54.906441
267,0,-72.010208,166.297791,120.546997,96.244202,169.036255,111.114418,145.800323,174.043884,90.264763,197.002579,167.749695,55.670006
268,0,-71.818199,165.698059,121.971107,96.577019,169.041260,112.258904,145.671906,174.263092,90.333145,196.769562,168.459183,56.340031
269,0,-71.562080,164.949005,123.490799,96.984932,168.879776,113.533661,145.661057,174.248550,90.841240,196.367935,168.648727,57.440720
270,0,-71.410767,163.973999,125.256119,97.186996,168.481689,115.082474,145.476959,174.031342,91.514748,195.558090,169.634674,58.346584
271,0,-71.310066,162.860855,127.181099,97.388878,168.091187,116.982430,145.107971,174.430298,92.763199,194.990479,170.589920,59.344414
272,0,-71.294174,161.719193,129.214508,97.429497,167.380280,119.390015,144.606369,174.764313,94.486923,193.958939,171.929703,60.785873
273,0,-71.300980,160.571762,131.320740,97.221550,166.594421,122.262405,143.851181,174.795898,96.805832,192.949707,173.008286,62.517731
274,0,-71.696175,159.519150,133.520157,96.897583,165.548981,125.751091,143.181946,174.688095,99.788300,191.751785,173.865326,64.713989
275,0,-72.170776,158.379700,135.606552,96.322090,164.310974,129.584747,142.334229,174.458679,103.227997,190.616135,174.361282,67.544411
276,0,-72.861694,157.196945,137.598389,95.547302,162.808167,133.732285,141.569199,173.574265,107.413612,189.668991,174.245605,71.470131
277,0,-73.866287,155.995163,139.606537,94.616074,160.983109,138.229736,140.837631,172.098404,112.450157,189.351410,173.040253,76.802605
278,0,-75.072220,154.574738,141.474045,93.549614,158.752762,143.121140,140.245880,169.881912,118.284714,189.126373,170.778809,83.089348
279,0,-76.165260,152.977997,143.238342,92.153549,155.988754,148.211151,139.766281,166.805237,124.860802,189.408737,167.746246,90.589951
280,0,-77.621552,151.359695,144.749268,90.679199,152.841888,153.407288,139.289642,163.037018,132.005371,189.703369,163.367111,98.632057
281,0,-79.032631,149.546066,145.998138,88.733612,149.216446,158.733261,138.421173,158.510483,139.319626,189.872116,157.654495,106.567711
282,0,-80.711205,147.718002,146.918610,86.537354,145.167023,164.019669,137.537064,153.512161,146.798767,189.466431,151.470383,114.072685
283,0,-82.608543,145.850555,147.543030,83.816055,140.916794,169.028488,136.019180,148.141663,154.389023,188.428452,143.893478,120.472115
284,0,-84.427208,143.865341,147.852081,80.851746,136.410538,173.703262,134.128510,142.123001,161.617523,186.194305,135.282944,125.171394
285,0,-86.309990,141.797287,147.686462,77.346161,131.564804,177.907974,131.761810,135.706329,168.158035,182.591324,125.929016,128.391724
286,0,-88.316772,139.613281,147.121475,73.788361,126.503540,181.461136,129.124527,128.662094,174.166656,178.038651,116.208260,130.848404
287,0,-90.570755,137.535080,146.243240,69.973358,121.413345,184.217636,125.987244,121.632530,179.154922,172.268661,105.660278,132.886505
288,0,-92.600945,135.449585,145.075470,66.002022,116.502556,186.148148,122.523705,114.258202,183.127975,165.566818,95.587975,134.119812
289,0,-94.831360,133.451218,143.571121,61.964851,111.905586,187.499512,118.617836,107.279961,186.002747,158.091568,86.607307,134.707596
290,0,-96.992653,131.553207,141.723694,57.853355,107.537956,187.871124,114.346161,100.509872,187.922165,150.530579,77.734520,134.738571
291,0,-99.272728,129.478607,139.715790,53.685928,103.371117,187.465530,110.086205,94.104347,188.662949,142.980164,69.711250,133.917252
292,0,-101.524513,127.550720,137.277496,49.633266,99.094154,186.352722,106.286995,88.025497,188.209091,135.369781,62.782974,131.813965
293,0,-103.986519,125.501900,134.665283,45.620758,94.527077,184.730820,102.492798,82.090118,186.642822,127.506630,56.490944,128.605560
294,0,-106.070816,122.917305,131.538666,41.806671,89.740433,182.517105,99.024658,76.154053,184.018204,119.874649,49.907406,124.918449
295,0,-108.389450,120.778709,128.454498,38.128082,85.150398,179.731094,95.604485,69.782219,180.746140,112.442703,43.688904,120.604355
296,0,-110.465401,118.616364,125.248390,34.850079,80.674278,176.373169,92.092178,63.021980,177.027191,105.458832,37.935005,116.039429
297,0,-112.257027,116.166565,121.767426,31.813488,76.444260,172.558578,88.722221,56.644016,172.823593,99.499939,33.070461,110.884766
298,0,-113.839874,114.496979,118.651245,29.240244,72.566437,168.426987,85.871704,51.045338,167.908035,94.563705,28.695629,105.336975
299,0,-115.205109,112.939850,115.349907,27.190094,69.005280,163.808487,83.643852,46.481735,162.573059,91.023605,24.942753,99.569801
300,0,-116.562386,110.904068,112.071503,25.583199,65.608253,158.848785,82.032372,42.771103,156.865646,88.225060,21.565573,93.710922
301,0,-117.667053,109.110916,108.890648,24.406256,62.455574,153.787399,80.748405,39.413906,150.970154,86.161011,18.297335,87.939415
302,0,-118.700233,107.482010,105.755165,23.509899,59.537270,148.620422,79.660004,36.101711,145.112930,84.260170,15.146811,81.831139
303,0,-119.588257,106.005470,102.679321,22.717875,56.766933,143.513245,78.489746,32.802048,139.241547,82.539642,12.201218,75.850861
304,0,-120.288696,104.670784,99.704102,22.039852,54.334690,138.649384,77.453987,29.709461,133.574203,80.637184,9.483913,70.000702
305,0,-120.843643,103.619576,96.773476,21.415138,52.421776,133.992188,76.495255,26.971235,128.178650,78.854134,7.141068,64.449173
306,0,-121.307068,102.629501,94.042381,20.897844,50.842823,129.643936,75.636055,24.859131,123.108673,76.978256,5.359462,59.186111
307,0,-121.864357,101.879219,91.384300,20.443043,49.537579,125.443192,74.914406,23.476389,118.374969,75.594025,4.005435,54.563206
308,0,-122.270363,100.860390,88.545815,19.991207,48.525101,121.505882,74.466095,22.640186,113.969780,74.197266,3.047098,50.153336
309,0,-122.907494,100.025894,86.174751,19.394209,47.622841,117.739830,74.039299,21.981510,109.846680,72.947624,2.107109,46.094467
310,0,-123.273277,99.401024,83.745125,18.919830,46.770378,114.090622,73.519608,21.204737,105.933952,71.914711,1.130771,42.307709
311,0,-123.736778,98.676201,81.569969,18.489323,45.786957,110.541756,72.832153,20.092228,102.111931,70.876213,-0.001340,38.704811
312,0,-124.241417,98.184265,79.436241,18.013357,44.819901,107.177917,72.201668,18.845064,98.368469,69.722862,-0.966294,34.709187
313,0,-124.582146,97.672798,77.376282,17.447388,43.889286,103.994133,71.571724,17.670177,94.767471,68.811371,-1.739877,31.039268
314,0,-125.074638,97.373131,75.414551,16.945774,43.178024,101.007935,70.939041,16.798405,91.514999,68.301292,-2.467315,27.734629
315,0,-125.417336,97.013840,73.710098,16.483320,42.705433,98.255714,70.260757,16.255974,88.570343,67.965164,-2.921296,24.764505
316,0,-125.874741,96.849892,71.909187,16.092562,42.408058,95.599564,69.817444,16.074995,85.826927,67.641678,-3.096916,21.914865
317,0,-126.281784,96.684639,70.380333,15.761245,42.353439,93.224129,69.532539,16.188597,83.303360,67.271835,-3.069835,19.335716
318,0,-126.693459,96.487694,68.868713,15.389658,42.475037,91.051743,69.224777,16.453705,80.966423,66.821625,-2.990371,17.140028
319,0,-127.149445,96.430405,67.454163,15.039264,42.697163,89.165787,68.838005,16.841831,78.928085,66.179764,-2.885777,15.123888
320,0,-127.601448,96.331596,66.215981,14.607784,43.038013,87.400604,68.415802,17.116350,77.136398,65.524467,-2.893968,13.444040
321,0,-127.947304,96.400383,64.836060,14.201423,43.381771,85.724304,67.911835,17.352631,75.635590,64.888908,-3.005860,11.984806
322,0,-128.364944,96.535957,63.657238,13.655233,43.766090,84.255272,67.455093,17.579521,74.342239,64.448097,-3.007476,10.879941
323,0,-128.726776,96.769371,62.458290,13.048669,44.250854,83.012901,66.898155,18.174007,73.883476,64.287544,-2.956392,10.835725
324,0,-128.983673,96.904282,61.241409,12.241296,44.931492,81.923637,66.284592,19.104958,73.638924,64.287285,-2.819686,10.877547
325,0,-129.136490,97.049255,59.926899,11.642458,45.761234,80.951401,65.852821,19.978157,73.385544,64.321518,-2.610590,10.875301
326,0,-129.552322,97.080299,58.935406,11.279477,46.602722,80.129257,65.541260,21.026762,73.105896,64.326942,-2.271519,10.783892
327,0,-129.795868,97.213600,57.948830,10.805690,47.349247,79.440620,65.229881,22.107721,72.895844,64.413597,-1.820308,10.808674
328,0,-129.999664,97.303474,57.170631,10.296720,48.038052,78.753609,64.849930,23.154047,72.634048,64.437820,-1.363613,10.752993
329,0,-130.087433,97.387039,56.207657,9.883394,48.561211,78.124107,64.587990,23.844673,72.436890,64.432899,-1.089358,10.752563
330,0,-130.125458,97.399353,55.376404,9.490483,48.957981,77.507912,64.393814,24.368486,72.295128,64.413376,-0.901762,10.734899
331,0,-130.108139,97.345512,54.707447,9.104027,49.187931,76.884514,64.186699,24.752083,72.098579,64.354080,-0.814264,10.714369
332,0,-130.093460,97.349838,54.049137,8.709929,49.210842,76.338425,63.985981,24.911182,71.971626,64.363564,-0.903130,10.791294
333,0,-130.149643,97.314529,53.517220,8.340831,49.083416,75.836716,63.636372,24.812222,71.907143,64.326889,-0.933696,10.749533
334,0,-130.201019,97.228584,53.033234,7.970329,48.862289,75.426102,63.347935,24.583218,71.906143,64.235382,-1.083648,10.739950
335,0,-130.289917,97.272789,52.660892,7.695510,48.760777,75.085831,63.045433,24.400499,71.863159,64.148026,-1.222020,10.701820
336,0,-130.343369,97.376396,52.362465,7.552654,48.837498,74.749908,62.892681,24.431862,71.761688,64.153015,-1.384331,10.705143
337,0,-130.363754,97.553116,52.099609,7.489942,49.076603,74.434082,62.807812,24.653130,71.595680,64.141251,-1.394866,10.667497
338,0,-130.303726,97.927513,51.785980,7.458686,49.453705,74.130966,62.775753,25.132704,71.362610,64.135773,-1.418659,10.635409
339,0,-130.254944,98.246010,51.478664,7.445812,49.940800,73.887276,62.818295,25.797270,71.061066,64.193459,-1.319131,10.647759
340,0,-130.232635,98.693031,51.177574,7.426920,50.394402,73.662102,62.768234,26.365435,70.852745,64.199280,-1.209696,10.643298
341,0,-130.260223,99.067909,50.907375,7.270915,50.720333,73.499168,62.625767,26.814604,70.688202,64.179062,-1.097613,10.639787
342,0,-130.342224,99.403847,50.687119,7.116080,50.922615,73.336220,62.478508,27.120081,70.525703,64.236664,-1.042386,10.637681
343,0,-130.433121,99.625931,50.475784,6.915185,51.049809,73.155678,62.292728,27.312828,70.466927,64.155151,-1.029945,10.632819
344,0,-130.593323,99.720741,50.266914,6.659665,51.067959,73.030632,62.057415,27.396175,70.439621,64.130577,-0.997672,10.598216
345,0,-130.722366,99.757484,50.117138,6.424272,51.005333,72.921730,61.901455,27.412598,70.427818,64.116638,-0.992951,10.634121
346,0,-130.857910,99.728134,50.009460,6.323298,50.900726,72.846466,61.763710,27.387972,70.441055,64.066299,-1.025437,10.615219
347,0,-130.988815,99.633270,49.825409,6.235583,50.744560,72.747597,61.677670,27.346876,70.411392,64.043488,-1.048325,10.583129
348,0,-131.039078,99.492653,49.691948,6.184045,50.551647,72.625305,61.641296,27.312256,70.339996,64.002037,-1.065997,10.549047
349,0,-131.095596,99.372559,49.566368,6.067454,50.397583,72.565514,61.643990,27.310352,70.309883,64.036903,-1.120562,10.604628
350,0,-131.084244,99.238632,49.456188,5.995560,50.256596,72.464897,61.688797,27.302601,70.251671,64.007469,-1.178645,10.523163
351,0,-131.075226,99.156776,49.329502,5.771692,50.205444,72.398041,61.740223,27.300938,70.172394,64.018661,-1.223515,10.479515
352,0,-131.090042,99.095245,49.187622,5.817654,50.069099,72.293289,61.795998,27.301752,70.087433,64.039703,-1.300915,10.460575
353,0,-131.079926,99.105278,49.097229,5.817739,50.023991,72.158905,61.827579,27.320181,70.032433,64.078522,-1.330079,10.450838
354,0,-131.104431,99.107895,48.987656,5.818716,49.974075,72.063210,61.855007,27.347834,69.947289,64.394157,-1.579094,10.501159
355,0,-131.078369,99.190620,48.871883,5.845199,49.942875,71.961464,61.816975,27.381235,69.899445,64.410263,-1.375089,10.280923
356,0,-131.080627,99.315842,48.773422,5.762805,49.921185,71.880913,61.827477,27.405838,69.884102,64.454651,-1.450284,10.245232
357,0,-131.044769,99.454285,48.693073,5.750139,49.943222,71.815491,61.796295,27.394430,69.820961,64.452103,-1.455722,10.221535
358,0,-131.032257,99.620445,48.602940,5.507211,50.228558,71.658646,61.771080,27.453896,69.818802,64.463997,-1.444302,10.212218
359,0,-130.993851,99.763603,48.642609,5.569140,50.309963,71.652061,61.805374,27.520590,69.809700,64.524643,-1.426654,10.239065
360,0,-130.991547,99.847321,48.666424,5.621204,50.406677,71.641518,61.855694,27.550838,69.805618,64.529114,-1.424615,10.237317
361,0,-130.980270,99.994568,48.700100,5.923030,50.306164,71.791573,61.905830,27.618158,69.794792,64.568649,-1.394829,10.240137
362,0,-130.953552,100.009064,48.704643,6.006074,50.359097,71.846100,62.019123,27.710302,69.764420,64.568398,-1.392000,10.230394
363,0,-130.882507,99.938232,48.699093,6.088313,50.390831,71.882492,62.120754,27.773163,69.753807,64.614227,-1.369224,10.236319
364,0,-130.851959,99.875542,48.670631,6.186541,50.364872,71.911606,62.210438,27.801693,69.733414,64.676582,-1.349523,10.271841
365,0,-130.817047,99.769943,48.689945,6.232989,50.373955,71.947693,62.299778,27.805819,69.743591,64.705132,-1.366325,10.253593
366,0,-130.772522,99.690689,48.644825,6.281796,50.294853,71.977600,62.355522,27.797224,69.753487,64.731972,-1.364599,10.260505
367,0,-130.721375,99.604332,48.538734,6.318483,50.251278,72.010414,62.387070,27.794371,69.764458,64.787605,-1.372539,10.256165
368,0,-130.727890,99.520844,48.500011,6.278811,50.209358,72.013695,62.418449,27.783926,69.755486,64.822304,-1.341533,10.266744
369,0,-130.737579,99.419891,48.416035,6.259624,50.151939,72.015640,62.417820,27.773266,69.759346,64.814140,-1.346622,10.266266
370,0,-130.739243,99.368286,48.325222,6.217297,50.122437,72.036949,62.385303,27.812342,69.761200,64.847122,-1.359187,10.273880
371,0,-130.769531,99.320312,48.197594,6.203637,50.093819,72.042183,62.397724,27.840984,69.760239,64.828613,-1.329762,10.267176
372,0,-130.791550,99.335785,48.141209,6.171852,50.126732,72.054642,62.347775,27.873070,69.753578,64.847855,-1.321627,10.257573
373,0,-130.831543,99.403961,48.091049,6.182145,50.164158,72.058235,62.323185,27.911594,69.737373,64.858070,-1.328081,10.267936
374,0,-130.870209,99.448212,47.987103,6.105978,50.217514,72.041237,62.294273,27.961647,69.707291,64.817451,-1.315593,10.260521
375,0,-130.857986,99.535660,47.954037,6.080862,50.290123,72.004440,62.248394,28.047331,69.685806,64.802429,-1.307285,10.253781
376,0,-130.862305,99.612099,47.922874,6.043318,50.363407,71.999016,62.223362,28.121250,69.662697,64.814911,-1.283254,10.246340
377,0,-130.858551,99.669685,47.908840,6.032251,50.417839,71.982979,62.213593,28.168966,69.621269,64.786034,-1.250770,10.242926
378,0,-130.864609,99.785347,47.944405,6.050538,50.472008,71.972801,62.201004,28.246803,69.594215,64.749649,-1.245655,10.240037
379,0,-130.911285,99.826599,47.933849,6.040920,50.505787,71.945442,62.201679,28.289551,69.570107,64.750038,-1.220661,10.238411
380,0,-130.918015,99.851662,47.976749,5.993341,50.536179,71.953110,62.181759,28.293505,69.547783,64.714455,-1.237942,10.229674
381,0,-130.868057,99.880676,47.982094,6.023032,50.522724,71.932487,62.170074,28.278753,69.543381,64.702507,-1.227277,10.219847
382,0,-130.862778,99.861305,48.009605,6.016299,50.487862,71.924744,62.173313,28.259686,69.549232,64.714294,-1.242633,10.199772
383,0,-130.813828,99.843971,48.065357,6.014112,50.465538,71.946724,62.177891,28.247728,69.555458,64.698212,-1.226448,10.188763
384,0,-130.807541,99.890717,48.121876,6.045746,50.477497,71.959991,62.187546,28.232466,69.564194,64.706535,-1.256426,10.223816
385,0,-130.790100,99.935097,48.155510,6.089876,50.478378,71.989128,62.245029,28.206980,69.581940,64.712090,-1.256157,10.225003
386,0,-130.753052,99.916588,48.193272,6.118566,50.501160,71.976799,62.259869,28.207470,69.588615,64.752136,-1.245033,10.246108
387,0,-130.727997,99.937279,48.252357,6.105193,50.466793,72.004730,62.266991,28.202364,69.578651,64.800873,-1.243324,10.250444
388,0,-130.682526,99.941200,48.296253,6.160442,50.483372,72.070076,62.280117,28.202574,69.593712,64.805931,-1.226648,10.224164
389,0,-130.637817,99.979568,48.375526,6.159972,50.507618,72.073357,62.300022,28.201092,69.614601,64.824501,-1.240259,10.270120
390,0,-130.618393,100.014053,48.404617,6.197608,50.534813,72.109642,62.331303,28.237165,69.621193,64.853249,-1.218376,10.253353
391,0,-130.611725,100.048904,48.416801,6.257533,50.583412,72.117844,62.364719,28.265926,69.614021,64.866150,-1.209670,10.293685
392,0,-130.590149,100.088600,48.464550,6.296262,50.591644,72.131432,62.355701,28.290659,69.627747,64.908096,-1.222054,10.276458
393,0,-130.591965,100.124825,48.506882,6.302326,50.620079,72.127983,62.355957,28.316071,69.607491,64.896065,-1.225032,10.297846
394,0,-130.592422,100.134422,48.502003,6.278035,50.669659,72.131729,62.367546,28.362944,69.596451,64.978157,-1.186994,10.302797
395,0,-130.578018,100.133980,48.515625,6.262360,50.665947,72.111595,62.356491,28.389912,69.606529,64.992821,-1.173148,10.272455
396,0,-130.625092,100.138901,48.518196,6.236951,50.676018,72.104805,62.345638,28.435429,69.613281,65.012634,-1.192150,10.294962
397,0,-130.664658,100.145760,48.532581,6.164612,50.688282,72.082474,62.314083,28.465471,69.619179,64.980911,-1.177118,10.306906
398,0,-130.696869,100.068878,48.579273,5.831840,50.921635,71.901489,62.300678,28.465088,69.628128,64.957817,-1.182990,10.317306
399,0,-130.709549,100.014458,48.575081,6.061032,50.719498,72.048332,62.313763,28.472542,69.618645,64.951523,-1.192811,10.314610
400,0,-130.744598,99.997513,48.582329,6.064242,50.711704,72.006409,62.330929,28.489048,69.556541,64.905403,-1.185516,10.262321
401,0,-130.742706,100.013145,48.525299,6.028341,50.713093,71.974373,62.276917,28.497974,69.526001,64.909355,-1.177368,10.288671
402,0,-130.770737,99.963387,48.584091,5.989808,50.706146,71.954292,62.224491,28.475573,69.546158,64.881645,-1.210591,10.259534
403,0,-130.763107,99.957977,48.594868,5.987950,50.693336,71.988968,62.184776,28.468113,69.540916,64.863708,-1.210847,10.264524
404,0,-130.822388,100.041519,48.588371,5.927056,50.732975,71.969772,62.132469,28.450933,69.557503,64.797836,-1.194199,10.250053
405,0,-130.913864,100.045654,48.605148,5.899273,50.729122,71.959915,62.029751,28.439199,69.556992,64.790764,-1.209278,10.235639
406,0,-130.972839,100.099083,48.565475,5.790985,50.740826,71.943405,61.983761,28.487488,69.533463,64.787498,-1.214559,10.242397
407,0,-131.015121,100.116440,48.582802,5.765089,50.781231,71.905823,61.919258,28.529758,69.508308,64.780731,-1.179386,10.229931
408,0,-131.028885,100.154732,48.543690,5.714333,50.806961,71.846649,61.820572,28.558144,69.483627,64.746239,-1.175318,10.227098
409,0,-131.096542,100.179520,48.537582,5.665120,50.839405,71.830544,61.761768,28.586493,69.464500,64.751785,-1.178024,10.230800
410,0,-131.161499,100.193726,48.539028,5.608946,50.859547,71.830635,61.749931,28.609921,69.466103,64.725464,-1.132788,10.226797
411,0,-131.173904,100.199471,48.546276,5.590507,50.870049,71.818016,61.696102,28.660835,69.468376,64.739304,-1.108889,10.201589
412,0,-131.162094,100.180473,48.544243,5.557158,50.879036,71.824173,61.672520,28.724928,69.451088,64.737724,-1.093455,10.199446
413,0,-131.160767,100.155869,48.536510,5.542414,50.910343,71.830620,61.664433,28.743204,69.451340,64.759506,-1.100474,10.198037
414,0,-131.139435,100.158806,48.532406,5.549049,50.899509,71.851311,61.688377,28.738924,69.486916,64.795624,-1.107467,10.205504
415,0,-131.094910,100.078957,48.529991,5.558854,50.881145,71.874458,61.702538,28.737852,69.471725,64.762352,-1.091917,10.238021
416,0,-131.089493,100.035286,48.568920,5.564996,50.869423,71.877838,61.722946,28.726915,69.495186,64.809372,-1.105750,10.281543
417,0,-131.053787,100.000038,48.584877,5.568970,50.879566,71.925423,61.739441,28.740589,69.527245,64.839096,-1.086064,10.285371
418,0,-131.055969,99.954788,48.664814,5.548320,50.826736,71.984489,61.742500,28.716427,69.589432,64.873375,-1.087895,10.320873
419,0,-131.034576,99.937263,48.686390,5.604534,50.814411,72.065720,61.782955,28.695438,69.618385,64.883980,-1.113284,10.332634
420,0,-131.040817,99.905884,48.705235,5.633597,50.828590,72.072540,61.821850,28.700354,69.616623,64.872467,-1.105163,10.362179
421,0,-131.025467,99.903679,48.723263,5.614129,50.848827,72.084404,61.799114,28.736555,69.624191,64.844521,-1.085181,10.344312
422,0,-131.016968,99.913719,48.749115,5.587189,50.839981,72.036377,61.802109,28.720942,69.613686,64.890762,-1.118066,10.359473
423,0,-130.929077,99.935181,48.737724,5.552136,50.841949,72.052620,61.798721,28.721849,69.617416,64.847450,-1.086562,10.316863
424,0,-130.976440,99.969254,48.742832,5.554076,50.851139,72.053635,61.760002,28.727406,69.622963,64.883965,-1.074538,10.295444
425,0,-130.977783,100.004829,48.727989,5.500982,50.882847,72.042503,61.683205,28.723789,69.646957,64.876022,-1.052007,10.356474
426,0,-131.012207,100.076538,48.745346,5.431511,50.929470,72.003075,61.641827,28.774597,69.646255,64.906448,-1.030322,10.365365
427,0,-131.018600,100.082916,48.729630,5.450667,50.975765,71.994759,61.618107,28.822163,69.579025,64.901894,-1.019458,10.323316
428,0,-131.042938,100.149536,48.754135,5.397652,51.071060,71.958527,61.614613,28.914152,69.531967,64.854057,-0.961243,10.285795
429,0,-131.062424,100.186111,48.758839,5.402781,51.114449,71.890556,61.594952,29.003635,69.475929,64.890579,-0.944729,10.278752
430,0,-131.055145,100.223656,48.709106,5.369109,51.169682,71.854080,61.544346,29.020205,69.444717,64.886047,-0.938168,10.301270
431,0,-131.071091,100.254494,48.721512,5.345149,51.180000,71.852501,61.503376,29.045855,69.473442,64.873459,-0.946716,10.247025
432,0,-131.030624,100.251732,48.722126,5.304473,51.169094,71.824577,61.486378,29.046547,69.490944,64.859718,-0.945025,10.251669
433,0,-131.053650,100.240532,48.742226,5.283862,51.140049,71.858253,61.489273,28.999922,69.529472,64.861053,-0.944603,10.246153
434,0,-131.057281,100.215439,48.776299,5.314285,51.116692,71.884392,61.489262,28.972775,69.504410,64.857010,-0.961387,10.271252
435,0,-131.057526,100.208099,48.771561,5.328955,51.139515,71.871910,61.532082,28.952969,69.481384,64.836380,-0.995134,10.274096
436,0,-131.021667,100.169495,48.758522,5.362832,51.119434,71.841011,61.531960,28.954624,69.467079,64.845573,-0.997815,10.278827
437,0,-130.957825,100.159584,48.773106,5.411756,51.119095,71.861900,61.566456,28.974657,69.477913,64.854774,-0.980760,10.274325
438,0,-130.928223,100.179131,48.760422,5.395083,51.122059,71.867538,61.617371,28.992420,69.479050,64.856705,-0.984212,10.278720
439,0,-130.934509,100.165970,48.807404,5.457626,51.134209,71.907921,61.671463,29.004709,69.485886,64.859039,-0.976456,10.296770
440,0,-130.904541,100.155746,48.807148,5.476488,51.154549,71.887314,61.682369,29.013479,69.498024,64.842606,-0.951644,10.282909
441,0,-130.887115,100.145844,48.813869,5.507604,51.194187,71.917862,61.723003,29.054361,69.462151,64.849648,-0.913234,10.232432
442,0,-130.879333,100.158737,48.844852,5.522969,51.232979,71.907318,61.763966,29.080173,69.455345,64.845222,-0.919600,10.239966
443,0,-130.872757,100.170189,48.824005,5.526334,51.247314,71.923309,61.757599,29.088135,69.453423,64.920097,-0.883981,10.267890
444,0,-130.848480,100.173309,48.846199,5.532358,51.226894,71.915939,61.759277,29.090197,69.487839,64.901222,-0.914483,10.286948
445,0,-130.851486,100.206551,48.842693,5.543145,51.199589,71.932861,61.788029,29.099928,69.515106,64.911118,-0.903663,10.293701
446,0,-130.792236,100.198837,48.765965,5.545577,51.183212,71.966858,61.785007,29.076582,69.504829,64.936218,-0.930001,10.293760
447,0,-130.750443,100.200157,48.760235,5.551949,51.201412,71.967857,61.783539,29.086588,69.518532,64.931236,-0.932324,10.294535
448,0,-130.763794,100.197533,48.755745,5.566381,51.215340,71.994942,61.807308,29.084566,69.508308,64.941101,-0.942241,10.298569
449,0,-130.742615,100.199364,48.772625,5.569382,51.229492,72.004341,61.807068,29.085571,69.539223,64.928764,-0.930838,10.292027
450,0,-130.735764,100.221359,48.749931,5.571042,51.244682,71.994652,61.837158,29.103794,69.525070,64.922462,-0.925581,10.286465
451,0,-130.677643,100.224739,48.714420,5.579238,51.226044,71.997482,61.811794,29.107454,69.537514,64.935097,-0.925929,10.288885
452,0,-130.646774,100.218620,48.738590,5.605388,51.206009,72.010002,61.842800,29.103584,69.528168,64.902786,-0.918789,10.264473
453,0,-130.629150,100.202690,48.730324,5.609009,51.215187,72.022179,61.867416,29.101078,69.513824,64.931068,-0.928163,10.291836
454,0,-130.712311,100.215172,48.677925,5.592173,51.221764,72.017746,61.882404,29.131533,69.503548,64.912086,-0.900237,10.299834
455,0,-130.732819,100.201164,48.678898,5.594282,51.234901,72.015022,61.896618,29.122868,69.490112,64.905754,-0.881651,10.286831
456,0,-130.685043,100.232887,48.691765,5.594574,51.241043,72.049187,61.887333,29.134195,69.505783,64.871658,-0.904161,10.316308
457,0,-130.680374,100.240303,48.667850,5.638471,51.262405,72.067398,61.923176,29.137564,69.502556,64.906616,-0.905174,10.296155
458,0,-130.661026,100.225769,48.662067,5.704493,51.232265,72.057632,61.947575,29.144091,69.473228,64.934364,-0.932341,10.266076
459,0,-130.600693,100.217659,48.691799,5.699994,51.246246,72.059029,61.983593,29.138742,69.450844,64.939217,-0.934307,10.267536
460,0,-130.610016,100.224731,48.708199,5.713390,51.254044,72.075592,61.980881,29.151777,69.467232,64.901283,-0.896893,10.280850
461,0,-130.568451,100.231285,48.722485,5.759678,51.273109,72.111084,62.011295,29.166662,69.461899,64.916626,-0.926816,10.308517
462,0,-130.569000,100.264542,48.769192,5.765571,51.295261,72.124557,62.031528,29.222256,69.436142,64.957787,-0.912417,10.325904
463,0,-130.531952,100.260544,48.782021,5.823788,51.332195,72.100571,61.916328,29.380318,69.418640,64.938530,-0.879176,10.281977
464,0,-130.514221,100.287506,48.766525,5.813933,51.380138,72.125114,61.747829,29.488695,69.451836,64.724968,-0.728780,10.293240
465,0,-130.509521,100.336533,48.819187,5.826896,51.410957,72.143799,61.848362,29.365383,69.573761,64.732864,-0.966092,10.558805
466,0,-130.503098,100.346504,48.839008,5.811019,51.432240,72.150597,61.833012,29.370750,69.564667,64.733589,-0.963020,10.553791
467,0,-130.516922,100.429428,48.861229,5.819646,51.416561,72.148987,61.822235,29.367462,69.601852,64.748756,-0.970699,10.567553
468,0,-130.565018,100.419868,48.886189,5.757961,51.446373,72.159981,61.777500,29.399782,69.600273,64.726242,-0.944094,10.594371
469,0,-130.545029,100.455956,48.890995,5.731579,51.436214,72.159386,61.783714,29.373405,69.622467,64.731552,-0.971201,10.594382
470,0,-130.538834,100.439583,48.863628,5.707863,51.443138,72.129776,61.749092,29.389013,69.597046,64.707939,-0.940101,10.590209
471,0,-130.622406,100.404884,48.848164,5.702020,51.456108,72.117294,61.759243,29.395369,69.551003,64.714157,-0.960020,10.575414
472,0,-130.608551,100.442490,48.890900,5.713597,51.476002,72.114304,61.764877,29.410324,69.547134,64.746620,-0.972512,10.570215
473,0,-130.572205,100.401253,48.861187,5.749706,51.478191,72.099205,61.773277,29.430494,69.544662,64.680138,-0.949066,10.588563
474,0,-130.566711,100.438675,48.834343,5.786469,51.457512,72.076561,61.821411,29.418060,69.550583,64.712837,-1.004489,10.596331
475,0,-130.553757,100.408699,48.874119,5.795210,51.452274,72.123711,61.832943,29.425785,69.509186,64.697052,-0.951403,10.554855
476,0,-130.555298,100.372871,48.865562,5.811522,51.448772,72.107956,61.849728,29.421034,69.493767,64.704063,-0.952975,10.535354
477,0,-130.563324,100.379883,48.874393,5.662055,51.495754,72.143845,61.831520,29.467146,69.488960,64.703712,-0.951712,10.534977
478,0,-130.572037,100.373512,48.859180,5.649478,51.544754,72.102654,61.831532,29.507214,69.490471,64.709175,-0.959672,10.567293
479,0,-130.581955,100.400978,48.898003,5.530516,51.569111,72.132965,61.832123,29.534958,69.465607,64.881027,-0.948338,10.432691
480,0,-130.627457,100.440269,48.894802,5.521350,51.569557,72.142456,61.830811,29.539352,69.476570,64.865494,-0.906623,10.387282
481,0,-130.638565,100.436844,48.910789,5.508855,51.575672,72.150597,61.807438,29.560640,69.461929,64.869415,-0.856142,10.374560
482,0,-130.619385,100.432426,48.913723,5.531321,51.576763,72.129562,61.998474,29.462990,69.436111,64.857887,-0.866471,10.368467
483,0,-130.659607,100.466225,48.938839,5.546860,51.583454,72.158623,61.962566,29.505096,69.382263,64.868027,-0.844624,10.385095
484,0,-130.622360,100.481956,48.955257,5.542014,51.625259,72.157738,61.945446,29.602722,69.392342,64.860558,-0.843823,10.342968
485,0,-130.668259,100.454338,48.972702,5.549411,51.653770,72.196640,61.889038,29.620644,69.412170,64.873428,-0.805515,10.354536
486,0,-130.680237,100.465248,48.964230,5.580385,51.666866,72.200150,61.957596,29.627115,69.389412,64.881218,-0.806479,10.349528
487,0,-130.611313,100.475639,48.969673,5.574134,51.657242,72.204643,61.948288,29.652525,69.369965,64.896996,-0.808972,10.335924
488,0,-130.601074,100.489456,48.998276,5.589882,51.654419,72.223076,61.951504,29.664213,69.395103,64.896805,-0.783942,10.335688
489,0,-130.629761,100.534065,48.976513,5.568097,51.659279,72.223351,61.960487,29.676678,69.409508,64.922165,-0.770887,10.311898
490,0,-130.636429,100.496269,48.997108,5.513849,51.645882,72.202202,61.953056,29.660370,69.369316,64.926590,-0.769393,10.303449
491,0,-130.679779,100.457214,48.975727,5.506109,51.656948,72.178528,61.930565,29.640625,69.353210,64.930779,-0.784506,10.303739
492,0,-130.681030,100.444183,48.973957,5.493344,51.648087,72.169601,61.932800,29.651672,69.342575,64.936699,-0.779290,10.285768
493,0,-130.686798,100.433090,48.917454,5.479915,51.652729,72.158150,61.912876,29.643970,69.331108,64.922775,-0.771075,10.293623
494,0,-130.689148,100.444855,48.915302,5.443470,51.669418,72.134819,61.909458,29.644403,69.332657,64.922112,-0.772432,10.298697
495,0,-130.685638,100.430687,48.897446,5.461455,51.671150,72.123878,61.930138,29.673830,69.314827,64.941292,-0.790189,10.286204
496,0,-130.701782,100.422829,48.862179,5.433427,51.678200,72.130989,61.936066,29.669569,69.301414,64.941368,-0.786348,10.277481
497,0,-130.718475,100.384575,48.865189,5.414824,51.648605,72.127190,61.925529,29.666479,69.317154,64.935104,-0.793171,10.272117
498,0,-130.727249,100.389091,48.821091,5.414435,51.624607,72.134964,61.927364,29.697819,69.321304,64.935524,-0.791465,10.308348
499,0,-130.742889,100.355850,48.794830,5.422296,51.602135,72.121696,61.925056,29.708139,69.300003,64.960495,-0.746631,10.286785
500,0,-130.758514,100.304497,48.759617,5.339091,51.632629,72.103668,61.870552,29.720001,69.309647,64.933716,-0.747693,10.276280
501,0,-130.780579,100.324409,48.746494,5.321126,51.609013,72.108963,61.866722,29.712563,69.301216,64.938774,-0.746756,10.249881
502,0,-130.800339,100.306480,48.732853,5.279542,51.607849,72.088646,61.804512,29.694384,69.316353,64.931694,-0.729829,10.292424
503,0,-130.848267,100.357384,48.669853,5.230793,51.615116,72.074799,61.767815,29.710199,69.309586,64.941994,-0.730132,10.295489
504,0,-130.847366,100.325874,48.626740,5.168686,51.604412,72.053444,61.722622,29.721193,69.315811,64.948624,-0.709095,10.266481
505,0,-130.886719,100.342087,48.566582,5.166008,51.610172,72.063736,61.704582,29.721184,69.309372,64.951065,-0.685565,10.251710
506,0,-130.910172,100.340683,48.561123,5.122358,51.598442,72.019928,61.652054,29.725962,69.343201,64.905411,-0.685408,10.289901
507,0,-130.917984,100.311043,48.531986,5.058506,51.583858,72.019028,61.624321,29.733126,69.344284,64.906937,-0.675533,10.284523
508,0,-130.904678,100.282249,48.490459,5.032465,51.557777,72.037811,61.590263,29.752598,69.341995,64.898911,-0.658279,10.272664
509,0,-130.957382,100.270470,48.399376,5.011934,51.588257,72.009331,61.586910,29.774662,69.341347,64.900314,-0.635140,10.262715
510,0,-130.970612,100.284462,48.358784,4.981133,51.593544,71.988617,61.542500,29.811512,69.334435,64.904404,-0.609596,10.248713
511,0,-130.989929,100.280563,48.317581,4.954188,51.602089,71.983101,61.501263,29.831814,69.315620,64.894051,-0.597895,10.275346
512,0,-131.043198,100.273888,48.281872,4.936458,51.602413,71.940231,61.496391,29.827587,69.304688,64.887108,-0.625931,10.263578
513,0,-131.050186,100.249687,48.270561,4.908175,51.602566,71.925804,61.495422,29.829174,69.294617,64.881119,-0.623091,10.262367
514,0,-131.091202,100.268837,48.202114,4.903520,51.600189,71.911697,61.455746,29.817106,69.304970,64.861633,-0.599243,10.261312
515,0,-131.092224,100.245461,48.201797,4.889026,51.572773,71.905159,61.432240,29.820894,69.319221,64.902359,-0.638608,10.298985
516,0,-131.119431,100.210503,48.114429,4.844853,51.561436,71.901848,61.463234,29.812050,69.299934,64.914520,-0.637894,10.271723
517,0,-131.093628,100.236893,48.080795,4.861557,51.548897,71.915619,61.428200,29.798662,69.313042,64.884941,-0.622782,10.254613
518,0,-131.110367,100.209084,48.028946,4.810465,51.536198,71.891243,61.431633,29.788691,69.320290,64.885620,-0.624577,10.260447
519,0,-131.109558,100.194687,47.963390,4.831220,51.552753,71.888474,61.436890,29.777767,69.308128,64.885483,-0.621966,10.256174
520,0,-131.105881,100.207092,47.956173,4.788992,51.528530,71.896118,61.395500,29.800808,69.322411,64.891663,-0.615548,10.281359
521,0,-131.089081,100.188232,47.836491,4.807503,51.516468,71.873650,61.390800,29.801741,69.317627,64.889381,-0.623355,10.261769
522,0,-131.050034,100.213791,47.782410,4.761743,51.533356,71.856392,61.369957,29.819046,69.297173,64.877190,-0.620343,10.253096
523,0,-131.113663,100.194061,47.689503,4.473366,51.725334,71.719330,61.360435,29.805677,69.298836,64.888069,-0.611413,10.275917
524,0,-131.105835,100.185272,47.666019,4.428442,51.672562,71.669807,61.336143,29.778316,69.335350,64.878227,-0.612291,10.277054
525,0,-131.066559,100.142288,47.603191,4.638324,51.506058,71.810349,61.307224,29.766851,69.328484,64.921181,-0.638465,10.248660
526,0,-131.130569,100.114120,47.539154,4.617954,51.493786,71.769981,61.298531,29.766716,69.336708,64.921761,-0.643136,10.247632
527,0,-131.109024,100.130730,47.528339,4.620717,51.489815,71.774574,61.274532,29.747385,69.349838,64.901512,-0.626822,10.239046
528,0,-131.108871,100.148323,47.469997,4.543280,51.497456,71.760696,61.273731,29.752291,69.365074,64.876617,-0.614811,10.276849
529,0,-131.097977,100.128281,47.400078,4.574347,51.476105,71.756950,61.270317,29.738754,69.349480,64.889748,-0.622767,10.257182
530,0,-131.037918,100.165611,47.319130,4.601213,51.446632,71.745049,61.256237,29.740721,69.315964,64.912086,-0.640669,10.247828
531,0,-130.995407,100.161392,47.273537,4.388350,51.610020,71.617363,61.233437,29.731220,69.296936,64.908188,-0.622785,10.235711
532,0,-130.998581,100.193352,47.211750,4.537506,51.468697,71.715210,61.228973,29.729740,69.297142,64.912521,-0.626241,10.240873
533,0,-131.011322,100.220200,47.156174,4.516336,51.465115,71.684425,61.200050,29.765432,69.264458,64.916512,-0.621605,10.268111
534,0,-130.996185,100.235680,47.083389,4.310732,51.611431,71.515862,61.225826,29.766235,69.271721,64.928177,-0.636102,10.248653
535,0,-130.937958,100.231644,47.011814,4.502683,51.447910,71.640511,61.198555,29.761950,69.269508,64.911041,-0.627051,10.242720
536,0,-130.937836,100.238052,46.963120,4.396087,51.485596,71.607811,61.156269,29.774353,69.271973,64.925774,-0.634990,10.213822
537,0,-130.950882,100.251991,46.876842,4.332217,51.463295,71.560631,61.111351,29.775713,69.255409,64.907761,-0.615526,10.222574
538,0,-130.976044,100.277534,46.814301,4.308889,51.488266,71.535965,61.072422,29.774763,69.228394,64.888115,-0.652947,10.236718
539,0,-130.916306,100.248077,46.771187,4.252996,51.447224,71.504372,61.045345,29.806530,69.243576,64.874023,-0.636979,10.231543
540,0,-130.917770,100.268555,46.754341,4.228763,51.461792,71.444641,60.987968,29.804363,69.254097,64.878853,-0.630425,10.245649
541,0,-130.931107,100.335976,46.717323,4.204865,51.485600,71.410118,60.976540,29.821766,69.228355,64.872368,-0.626305,10.238166
542,0,-130.905365,100.366272,46.657475,4.237394,51.499580,71.411079,61.014824,29.855341,69.220772,64.879601,-0.654774,10.198377
543,0,-130.848923,100.418808,46.717495,4.315918,51.444530,71.447243,61.036297,29.848656,69.197800,64.914536,-0.624223,10.213784
544,0,-130.839035,100.432617,46.903553,4.351090,51.525455,71.481247,61.125126,29.872456,69.199203,64.929657,-0.636864,10.247015
545,0,-130.929230,100.476883,47.159664,4.551084,51.519138,71.645012,61.234940,29.926107,69.218414,64.903717,-0.614950,10.252214
546,0,-131.011734,100.445770,47.666157,4.816262,51.467449,71.798271,61.438419,29.907452,69.245827,64.909477,-0.614525,10.250862
547,0,-130.998596,100.456497,48.325783,5.156001,51.526920,72.062912,61.834549,29.913383,69.278709,65.087303,-0.613912,10.317311
548,0,-131.116608,100.435684,49.388615,5.865048,51.467388,72.619072,62.429241,29.925043,69.314507,65.382141,-0.656435,10.387258
549,0,-131.414291,100.669228,50.875343,6.880312,51.392090,73.437851,63.341721,29.903494,69.378731,65.821266,-0.699465,10.456544
550,0,-131.613113,100.839523,52.789295,8.142220,51.324295,74.635468,64.455467,29.858751,69.508583,66.308853,-0.771643,10.417548
551,0,-131.766327,101.326385,55.190498,9.645879,51.367405,76.296883,65.870438,29.718164,69.650253,67.293983,-0.995726,10.496085
552,0,-131.939880,101.991554,57.951550,11.620228,51.547390,78.179329,67.502411,29.515570,69.804466,68.814339,-1.439453,10.443163
553,0,-131.825989,102.904068,61.114769,13.997897,51.798100,80.534355,69.288963,29.188814,70.062698,70.986740,-2.664507,11.016201
554,0,-131.346298,104.182083,64.529305,16.668959,52.238052,83.256035,71.137604,29.025549,70.797226,73.321404,-3.637680,12.114897
555,0,-130.502609,105.666595,68.193802,19.557032,53.057583,86.209366,73.215050,29.005146,72.345245,75.986801,-4.982573,14.279952
556,0,-129.159958,107.298164,71.951492,22.700548,54.142853,89.500565,75.542297,29.285057,74.800652,78.793060,-6.018251,17.429028
557,0,-127.413246,109.213509,76.060135,25.843328,55.401207,93.196899,78.058525,30.011835,78.104927,82.631615,-6.395043,21.433735
558,0,-125.028160,110.970650,80.293663,29.145924,56.901878,97.474426,80.896362,31.210526,82.177704,87.287796,-5.815824,25.975166
559,0,-122.295738,112.691200,84.789413,32.559025,58.547443,102.220421,84.018578,32.682449,86.866982,92.728050,-4.066360,30.841778
560,0,-119.182442,114.511795,89.316330,36.158264,60.547321,107.492508,87.622932,34.997284,91.793076,98.896263,-1.795065,36.356716
561,0,-116.244026,116.086136,94.298477,39.979630,62.883034,113.139496,91.534172,38.149513,96.996651,105.587570,0.685224,42.720627
562,0,-113.055420,117.842712,99.360390,43.784142,65.706810,119.089996,95.747620,41.563503,102.864861,112.896454,3.877070,49.783573
563,0,-109.436798,119.501831,104.505234,48.304028,68.711121,125.469032,100.226433,45.368137,109.270645,120.556465,7.678375,57.771271
564,0,-105.574272,121.752762,109.711784,52.779633,71.948593,132.064499,105.060966,49.652912,116.052597,128.680984,12.435632,65.813667
565,0,-101.535286,123.187080,114.777962,57.506847,75.373001,138.836456,110.175697,54.288464,123.119522,136.888107,17.630257,74.519875
566,0,-97.188797,125.057983,119.851227,62.360844,78.800026,145.662964,115.402145,59.008656,130.264481,145.343918,23.271250,83.381798
567,0,-92.459023,127.003220,124.880554,67.348076,82.296890,152.421494,120.997322,63.789093,137.495712,153.741470,29.191502,92.176567
568,0,-87.330566,128.970139,129.798431,72.694633,85.786987,158.956238,126.647499,68.491470,144.661591,162.341583,34.708046,101.028503
569,0,-81.891121,130.977142,134.525665,78.159401,89.296341,165.286682,132.685852,73.057098,151.718414,170.590576,40.287304,109.575424
570,0,-76.062279,133.008896,139.247040,84.108948,92.755478,171.217560,138.859238,77.559715,158.544815,178.632126,45.772114,117.558319
571,0,-70.042267,135.108826,143.807266,90.188972,96.366608,176.748352,145.263092,81.877930,164.958923,186.698380,51.147762,125.085037
572,0,-63.536411,137.103271,148.108780,96.526764,99.898697,181.840927,151.972214,86.108810,170.933975,194.735718,56.400181,132.171143
573,0,-56.969002,139.120285,152.409912,103.048569,103.395432,186.485809,158.663269,90.183998,176.405945,203.146606,62.014492,138.745178
574,0,-50.272812,141.107834,156.566406,109.856400,106.854683,190.631439,165.523666,94.208817,181.358261,211.267426,67.203209,144.624634
575,0,-43.554276,142.888275,160.459946,116.636871,110.218643,194.312225,172.506805,98.217834,185.766449,219.400467,72.255112,149.903519
576,0,-36.826660,144.680847,164.133377,123.690193,113.498047,197.495956,179.567429,102.151772,189.583542,227.404312,77.384209,154.367401
577,0,-30.036253,146.469803,167.744614,130.745361,116.644493,200.154663,186.650162,106.130600,192.786697,235.523392,82.451843,158.137344
578,0,-23.231153,148.282700,170.997620,137.928162,119.794357,202.465317,193.852402,110.013252,195.470612,243.778885,87.521439,161.031662
579,0,-16.343960,150.109207,173.949997,145.196457,122.951118,204.345688,201.118515,113.920517,197.579407,251.593735,92.483994,163.353683
580,0,-9.441456,151.945297,176.626892,152.442215,126.044258,205.775833,208.388901,117.775261,199.153946,259.180054,97.236053,164.950119
581,0,-2.569808,153.881241,179.044769,159.640884,129.007919,206.869446,215.528259,121.433525,200.293533,266.836060,101.959938,166.019531
582,0,4.130202,155.758591,181.240387,166.801773,131.857468,207.610947,222.681366,125.069412,201.024124,274.187958,106.450470,166.664581
583,0,10.969317,157.595551,183.080566,173.952499,134.614822,208.035019,229.746735,128.530762,201.305634,281.411224,110.667671,166.880981
584,0,17.598850,159.426987,184.677109,180.888107,137.287445,208.148178,236.921280,131.797241,201.268204,288.438904,114.542473,166.741028
585,0,24.013144,161.181534,185.987610,187.775742,139.937897,207.848923,243.713181,134.854462,200.802673,295.367065,118.119934,166.216202
586,0,30.225451,163.109070,186.831360,194.458939,142.586227,207.265030,250.296738,137.743301,200.033936,302.003632,121.469475,165.336487
587,0,36.390762,164.931580,187.396347,200.976639,145.159332,206.456818,256.664459,140.544769,198.966354,308.435730,124.668068,164.199219
588,0,42.519630,166.339294,188.126083,207.251831,147.619659,205.473007,262.801697,143.198898,197.530380,314.461456,127.715202,162.526855
589,0,48.467178,167.936050,188.362335,213.413498,149.980484,204.353088,268.951050,145.815506,195.883530,320.388733,130.798416,160.680176
590,0,53.856194,169.449600,188.468079,219.156326,152.196304,203.053467,274.692566,148.445374,194.154068,326.127655,133.860565,158.688004
591,0,59.298264,170.964401,188.183746,225.228149,154.436432,201.654312,280.285553,151.016388,192.315765,331.675293,136.756866,156.614990
592,0,64.472054,172.427780,187.632858,230.748123,156.602646,200.173813,285.745911,153.461380,190.460342,336.975159,139.411118,154.653366
593,0,69.673439,173.825043,186.798721,236.187256,158.758102,198.538483,291.032501,155.810913,188.603470,342.378967,141.887451,152.740936
594,0,74.737030,175.257248,185.713120,241.441147,160.897217,196.745773,296.377197,158.031433,186.744736,347.661469,144.151672,150.851334
595,0,79.738159,176.641541,184.475250,246.512726,162.863434,194.769836,301.432648,160.110825,184.751434,352.776917,146.233185,148.939545
596,0,84.957932,177.795349,182.844131,251.588943,164.750824,192.643143,306.355896,162.061493,182.644241,357.779846,148.224014,146.895416
597,0,89.666489,178.968658,181.322296,256.402161,166.404800,190.313202,311.128998,163.821716,180.308350,362.618195,150.118286,144.646378
598,0,94.393181,180.055328,179.589630,261.169891,167.921021,187.877457,315.737640,165.454697,177.697678,367.239136,151.877823,142.025772
599,0,98.724571,180.944382,178.036575,265.764771,169.296692,185.251221,320.261200,166.924866,174.924576,371.743561,153.440018,139.185837
600,0,103.018257,181.742050,176.251984,270.421844,170.463348,182.474487,324.676727,168.237915,171.877747,376.002197,154.873245,135.919250
601,0,107.108131,182.545288,174.350128,274.768280,171.649521,179.595230,328.859741,169.447769,168.687607,380.026093,156.115021,132.657730
602,0,111.120300,183.265533,172.412643,278.757416,172.759308,176.639862,332.855774,170.571960,165.338272,383.875061,157.321030,129.201263
603,0,114.761650,183.884857,170.413818,282.706726,173.681488,173.628403,336.631592,171.620407,161.955154,387.580048,158.595963,125.559540
604,0,118.457336,184.366959,168.379684,286.462585,174.545578,170.583344,340.223572,172.660278,158.495438,391.206726,159.657120,122.144203
605,0,121.798340,184.764359,166.265198,290.004059,175.323685,167.534409,343.650543,173.587509,155.081116,394.420227,160.800629,118.447021
606,0,125.026062,185.095657,164.063950,293.307068,176.033920,164.470520,346.838898,174.462906,151.687851,397.593811,161.774887,114.950691
607,0,128.383652,185.166275,161.830795,296.541138,176.745453,161.264114,349.836670,175.194763,148.258545,400.502319,162.538712,111.492569
608,0,131.250992,185.382782,159.504944,299.475189,177.276917,158.124954,352.602295,175.871780,144.794968,403.249115,163.326614,108.086494
609,0,133.806778,185.549713,157.275406,302.220825,177.631577,154.915619,355.115479,176.374451,141.281235,405.703949,164.017593,104.535393
610,0,136.241623,185.557510,155.038681,304.637695,177.742172,151.678116,357.410980,176.758499,137.688126,407.898499,164.634583,100.862709
611,0,138.577454,185.411926,152.700058,306.977661,177.672745,148.484451,359.544983,176.872253,134.179123,409.846802,165.001740,97.049408
612,0,140.342285,185.233673,150.711334,309.026642,177.379166,145.386978,361.333649,176.770996,130.587585,411.465942,165.196259,93.289536
613,0,142.001251,184.908295,148.588776,310.776367,177.005875,142.272156,362.764099,176.602921,127.081718,412.782928,165.153259,89.549973
614,0,143.431808,184.542419,146.414963,312.279938,176.633026,139.366119,364.145325,176.373749,123.788269,413.877808,165.057404,85.944695
615,0,144.706665,184.164978,144.223892,313.396912,176.070587,136.628754,365.155212,176.000229,120.819687,414.878754,164.935410,82.662872
616,0,145.785477,183.759979,141.908127,314.394989,175.500473,134.113480,366.116089,175.550797,118.342567,415.630371,164.663788,79.789375
617,0,146.613800,183.369293,139.610077,315.109222,174.982025,131.823181,366.810150,175.148636,116.134605,416.355286,164.492737,77.543472
618,0,147.182999,183.006439,137.390503,315.408234,174.318893,129.859375,367.329193,174.687393,114.482407,416.849609,164.250977,75.563103
619,0,147.615143,182.548843,134.995178,315.632019,173.625992,127.957924,367.687531,174.130997,112.961731,417.337372,164.083771,74.040466
620,0,147.766510,182.033264,132.926758,315.700165,172.832626,126.271263,367.830963,173.583649,111.964058,417.811523,163.865616,73.229836
621,0,147.806610,181.645264,130.842148,315.493195,171.994263,124.954689,367.715698,172.990524,111.531517,418.182495,163.561691,72.672737
622,0,147.570587,181.435349,128.927399,315.232666,171.684830,123.917366,367.588501,172.642975,111.390152,418.349579,163.344940,72.287910
623,0,147.432175,181.318039,127.082840,314.812164,171.662582,122.984299,367.361053,172.717606,111.214714,418.387543,163.304031,72.127762
624,0,147.161224,181.269302,125.457436,314.367310,171.921997,122.140617,367.050201,173.087875,110.975639,418.330353,163.519775,71.897995
625,0,146.916229,181.304901,123.865646,313.916473,172.328415,121.461769,366.704895,173.669556,110.909332,418.226624,163.952011,71.768135
626,0,146.570694,181.427673,122.486450,313.551514,172.597397,120.998245,366.414154,174.260468,111.011932,418.003571,164.358948,71.745079
627,0,146.482529,181.511536,121.039085,313.088623,172.685867,120.586861,366.122284,174.457413,111.074577,417.639435,164.484055,71.514732
628,0,146.317429,181.630005,119.842590,312.683624,172.698227,120.301407,365.871033,174.294388,111.287140,417.310303,164.202103,71.223869
629,0,146.133331,181.855057,118.932434,312.335449,172.773621,120.038818,365.680695,173.940674,111.595207,417.000061,163.767654,70.947014
630,0,146.100586,182.157990,117.968689,312.046997,172.993240,119.758034,365.550049,173.701263,111.863342,416.823273,163.481461,70.751648
631,0,146.184540,182.444901,117.127838,311.890808,173.345261,119.505951,365.473083,173.845947,112.004349,416.662811,163.345276,70.492287
632,0,146.453796,182.768204,116.378830,311.894012,173.902008,119.227715,365.533875,174.120193,112.112572,416.623047,163.303436,70.197281
633,0,146.820511,183.200073,115.589821,311.929504,174.521988,119.098106,365.681366,174.398209,112.180168,416.663361,163.238693,69.968742
634,0,147.142792,183.689423,115.273170,312.049286,175.085022,118.975624,365.900726,174.662918,112.299316,416.687500,163.144287,69.768066
635,0,147.621719,184.172638,114.918411,312.262695,175.619476,118.911224,366.210358,174.930893,112.381683,416.746979,163.031158,69.592987
636,0,148.209793,184.608871,114.712448,312.518677,176.002762,118.941887,366.652924,175.131821,112.475182,416.715698,162.802612,69.364769
637,0,148.831299,185.006134,114.588120,312.822968,176.333466,119.056328,367.102173,175.221558,112.546722,417.000183,162.721817,69.289467
638,0,149.325134,185.315094,114.655342,313.126373,176.702164,119.439026,367.632263,175.234726,112.815063,417.138672,162.474960,69.236015
639,0,149.872498,185.640808,114.722549,313.584320,177.049133,119.951256,368.255280,175.266754,113.126511,417.370728,162.176498,69.306969
640,0,150.504745,185.929642,114.798698,313.985809,177.445435,120.476166,368.918549,175.260635,113.397919,417.613861,161.739136,69.409256
641,0,151.159225,186.331177,114.988472,314.638367,178.172012,120.959641,369.558960,175.414246,113.606018,418.253815,161.173828,69.967514
642,0,152.003647,186.847763,115.203033,315.256226,179.250793,121.430710,370.301331,175.877548,113.757286,418.832428,160.278015,70.576195
643,0,152.758163,187.585510,115.557755,315.744781,180.447952,121.846405,371.017548,176.298340,113.992569,419.256256,159.056030,71.337883
644,0,153.408646,188.394287,115.963463,316.352661,181.496078,122.471275,371.625183,176.465515,114.525856,419.541046,158.112518,72.067696
645,0,154.108002,189.217819,116.654495,316.855957,182.328369,123.230110,372.061401,176.682236,115.093719,419.675171,157.613556,72.568695
646,0,154.585770,189.907959,117.506248,317.342651,183.068802,124.139412,372.635956,177.171814,115.407021,419.608917,157.076294,72.729271
647,0,154.915314,190.410477,118.506546,317.733490,183.765793,125.184525,373.032379,177.472198,116.183136,419.164337,156.238876,73.234596
648,0,155.021225,190.753571,119.566193,318.014648,184.441483,126.557068,373.109833,177.408630,117.700104,418.466736,155.417175,74.026566
649,0,155.088654,191.000626,120.696190,317.986664,185.167969,128.200882,372.894287,177.466736,120.411453,415.370789,153.843536,73.708160
650,0,154.883881,191.154022,121.869171,317.525208,185.536514,130.457657,372.587799,177.541550,122.792603,408.808990,152.772629,70.786507
651,0,154.285721,191.184616,123.058144,316.834442,185.814575,132.894791,372.405273,176.987091,123.707390,406.613434,152.593796,70.476570
652,0,153.435455,191.104660,124.524796,315.796600,185.834610,135.166031,371.591675,177.038483,125.126991,404.851257,152.548080,71.407288
653,0,152.159592,190.851227,126.123589,314.433228,185.487244,137.385300,370.306976,176.922287,127.141762,403.444275,152.977036,73.054810
654,0,150.474213,190.397644,127.765266,312.617920,185.065430,139.650055,368.463531,176.472473,129.527069,402.215363,153.148651,75.530525
655,0,148.329544,189.816528,129.382446,310.419861,184.700089,142.057678,366.405548,176.172989,132.197037,400.680267,153.257889,78.398117
656,0,145.801010,189.249039,131.062805,307.950562,184.224045,144.555573,363.787354,175.907974,134.924149,399.475311,152.623154,82.311432
657,0,142.845108,188.673187,132.729141,304.850647,183.730515,147.018860,360.785645,175.171768,137.814209,398.010193,151.636292,86.549812
658,0,139.524963,188.284927,134.375763,301.400177,183.426224,149.710663,357.269348,174.247559,140.878784,395.692444,150.608551,90.763321
659,0,135.808563,187.970886,135.891998,297.463806,183.320358,152.450760,353.393158,173.691055,143.883102,392.751648,149.686295,94.943535
660,0,131.615005,187.667404,137.307510,293.196869,183.257904,155.120529,349.100891,173.378769,146.950775,389.396881,148.985260,99.197166
661,0,127.137466,187.366089,138.605484,288.333313,183.176880,157.852203,344.355621,173.190491,150.039902,385.644379,148.720093,103.381119
662,0,122.211105,187.066223,139.753143,283.038879,183.043915,160.425812,339.147736,173.026840,153.151611,381.020233,148.121582,107.463013
663,0,116.894196,186.643845,140.716293,277.453522,182.952988,162.829147,333.655762,172.900131,156.228058,376.570770,148.393555,111.356949
664,0,111.254997,186.141434,141.335419,271.577637,182.775635,165.070389,327.941254,172.899826,159.275040,371.586761,148.353531,115.349655
665,0,105.010170,185.900864,142.220016,265.583313,182.479965,167.219208,321.940155,173.103851,162.191376,366.096863,148.522110,118.738297
666,0,99.066978,184.971344,142.704163,258.913269,182.342361,169.117294,315.547913,173.469025,164.928085,360.472260,148.793213,121.926262
667,0,92.895226,184.216660,142.955917,252.397095,182.071136,170.647903,308.951691,173.735886,167.183456,354.546051,148.906128,124.967590
668,0,86.381538,183.710739,143.152985,245.624954,181.793732,171.788864,302.346100,173.862473,169.088364,348.508423,149.122620,127.357407
669,0,79.838699,183.084564,143.150970,238.997025,181.554535,172.708160,295.686066,173.900696,170.437210,342.353577,149.172241,129.247589
670,0,73.327072,182.266022,142.935120,232.253769,181.405716,173.348785,289.013367,173.919754,171.498413,336.200897,149.359161,130.455704
671,0,66.672554,181.772385,142.652985,225.588409,181.389130,173.794373,282.398926,173.936050,172.103958,329.503082,149.037170,131.321701
672,0,60.144981,181.160492,142.236267,219.051498,181.437347,173.922104,275.851257,174.061874,172.385162,323.083771,148.996277,131.924622
673,0,53.716873,180.587753,141.681793,212.200363,181.395416,173.738907,269.265289,174.221741,172.310989,316.515503,149.075821,132.096359
674,0,46.932285,180.085556,140.967331,205.487885,181.109268,173.468765,262.792755,174.213135,172.091705,310.280487,149.352310,132.088593
675,0,40.677792,179.291016,140.156281,198.952805,180.715851,172.890305,255.884674,174.089432,171.802597,303.923035,149.201355,131.975967
676,0,34.219261,178.553741,139.131119,192.396225,180.195862,172.100693,249.454727,173.695999,171.274017,297.801971,148.887756,131.643433
677,0,27.963341,177.863831,138.001678,186.214828,179.786179,171.071548,243.125534,173.166473,170.465042,291.387756,148.281158,130.818817
678,0,21.834080,177.275177,136.713257,179.966476,179.474945,169.846634,236.983292,172.740753,169.333099,285.277924,147.740417,129.848175
679,0,15.963787,176.709961,135.352371,173.835159,179.279816,168.400330,230.972321,172.527603,167.944397,279.354218,147.553955,128.633987
680,0,10.221420,176.257462,133.869308,167.868484,179.156113,166.799377,225.021240,172.532639,166.359344,273.331909,147.398987,127.040596
681,0,4.495700,175.670883,132.348648,162.035660,179.036667,165.031723,219.188187,172.726013,164.560837,267.633972,147.760254,125.332253
682,0,-1.177885,175.143967,130.769592,156.422256,178.793243,163.215027,213.297623,172.770737,162.526169,262.093719,147.966492,123.334053
683,0,-6.672775,174.399170,128.972122,150.991440,178.519028,161.284561,207.953903,172.652466,160.527054,256.812866,148.245773,121.194351
684,0,-12.109501,173.787674,127.476112,145.787460,178.268814,159.326874,202.737000,172.461792,158.441849,251.611053,148.001114,119.193985
685,0,-17.084320,173.210724,125.728828,140.571487,178.173096,157.269424,197.582901,172.336899,156.265305,246.301971,147.781738,117.216164
686,0,-21.879244,172.717545,124.118385,135.613876,178.163452,155.255859,192.761536,172.363480,154.138489,241.382996,147.704895,115.066299
687,0,-26.560131,172.277069,122.557320,130.848953,178.174088,153.220734,188.151749,172.556046,151.946030,236.693787,148.142166,112.781555
688,0,-30.865955,171.762604,120.756027,126.341331,178.135757,151.153137,183.562302,172.788651,149.795166,232.182419,148.407455,110.783684
689,0,-35.222729,171.233490,119.219666,121.875839,178.055023,148.999222,179.049744,173.024628,147.676086,228.037247,148.706848,108.896927
690,0,-39.291084,170.764923,117.515900,117.641701,178.066406,146.941467,174.900589,173.184128,145.659744,223.607101,148.615341,107.078407
691,0,-43.154282,170.326065,115.834846,113.617783,178.026947,144.706940,170.851151,173.286224,143.629883,219.690826,148.777390,105.149429
692,0,-46.735031,169.944183,114.185989,109.779236,178.058395,142.519333,167.036316,173.459702,141.580475,216.139755,149.101105,103.117851
693,0,-50.070530,169.629837,112.462563,106.360786,178.119583,140.301758,163.593475,173.689148,139.360153,212.758942,149.383224,100.980766
694,0,-53.199055,169.284973,110.983421,103.201134,178.127869,138.116287,160.350281,173.955536,137.046722,209.583572,149.725143,98.654213
695,0,-56.167725,168.924866,109.528206,100.320114,178.029190,135.855423,157.423645,174.114075,134.629547,206.649323,150.077057,96.008202
696,0,-58.910343,168.393768,108.411171,97.522644,177.828171,133.661209,154.707703,174.177490,132.087158,203.808319,150.347946,93.342529
697,0,-61.465916,167.940659,107.148972,95.117035,177.572006,131.651947,152.327911,174.051865,129.670212,201.182251,150.396667,90.635574
698,0,-63.787914,167.494858,105.922394,92.933319,177.361542,129.691544,150.034103,173.849457,127.315430,198.742325,150.394608,87.898232
699,0,-65.976532,167.102570,104.719872,90.599190,177.090424,127.760292,147.948914,173.594269,125.057533,196.277054,150.260956,85.382210
700,0,-68.027901,166.637314,103.506157,88.491928,176.755051,125.895905,145.771347,173.443878,122.888405,194.002396,150.101547,82.942406
701,0,-69.885033,166.216461,102.349213,86.453384,176.311493,124.319519,143.846436,173.263763,120.853561,191.873779,149.975494,80.861702
702,0,-71.749146,165.676254,101.343445,84.451096,175.515778,123.184372,142.058945,172.901093,119.298416,189.778748,149.531647,79.040825
703,0,-73.483955,165.055496,100.598053,82.601440,174.521423,122.361313,140.258926,171.782166,118.411552,187.776367,148.914673,77.642159
704,0,-75.051033,164.325104,100.010757,81.094933,173.506668,121.754066,138.692352,170.617691,117.699409,186.125092,148.128387,76.566673
705,0,-76.434647,163.596375,99.480797,79.670883,172.655777,121.209549,137.318130,169.716827,117.136215,184.496689,147.336899,75.735512
706,0,-77.671143,162.967865,99.148979,78.325424,171.978455,120.761086,136.043076,169.018478,116.626045,183.255554,146.598007,75.314568
707,0,-78.714172,162.565170,98.860924,77.346375,171.443909,120.419273,134.966125,168.511124,116.313423,182.056107,145.817703,75.159943
708,0,-79.641502,162.229752,98.741898,76.328964,170.937881,120.232895,133.897430,168.095200,116.181549,181.229782,145.559631,75.024086
709,0,-80.411057,161.858932,98.737259,75.441200,170.381058,120.211983,132.978729,167.648926,116.112068,180.293747,145.149323,74.959183
710,0,-81.307953,161.491501,98.846703,74.643509,169.823288,120.347572,132.083267,167.220551,116.171181,179.440094,144.818359,74.951851
711,0,-82.181389,160.961655,99.097878,73.869568,169.299179,120.575157,131.331268,166.770279,116.260216,178.758804,144.550003,74.993309
712,0,-83.003113,160.381821,99.393127,73.210419,168.718460,120.725464,130.658707,166.304810,116.318283,177.995773,144.263321,75.002541
713,0,-83.760414,159.759903,99.552643,72.458786,168.091202,120.872406,129.833008,165.800247,116.258781,177.172287,143.909531,74.898735
714,0,-84.629066,159.169327,99.728058,71.763710,167.388290,120.966248,129.048828,165.277405,116.139442,176.445389,143.544418,74.767090
715,0,-85.402748,158.474380,99.906387,71.138336,166.560440,120.903923,128.418518,164.660248,115.904152,175.882812,143.111847,74.497795
716,0,-86.171227,157.776535,100.024948,70.688461,165.721619,120.635010,127.969009,163.999451,115.476974,175.364334,142.771774,73.823334
717,0,-86.908295,156.974106,100.188766,70.372971,164.932495,119.915955,127.459702,163.374496,114.626442,174.876068,142.454208,72.679199
718,0,-87.642906,156.122116,100.287872,70.413788,164.264008,118.561111,127.092018,163.017593,113.001793,174.827377,142.328171,71.177361
719,0,-88.237686,155.298401,100.180244,70.370781,163.136444,117.379036,127.160851,162.756485,110.846497,174.752960,142.760880,68.885262
720,0,-88.779137,154.399994,99.982590,70.201874,161.511292,116.616196,126.822189,162.314285,109.297157,174.290771,142.331894,67.242363
721,0,-89.203453,153.514755,99.726730,69.688347,159.162292,116.111069,126.103355,160.372101,108.779594,173.885773,140.843185,66.759964
722,0,-89.614487,152.408585,99.308678,69.128860,156.930603,115.630913,125.766304,156.722153,109.067635,173.332199,139.025696,66.073196
723,0,-90.020523,151.220963,98.754395,68.418823,156.059570,115.383820,124.964508,155.019974,109.471519,172.825378,137.720871,66.523102
724,0,-90.576195,150.203079,98.337280,67.672310,155.631470,114.974358,124.359184,155.491776,108.853966,172.167603,137.036179,66.407959
725,0,-91.053879,149.511337,97.865372,67.011017,155.045822,114.591125,123.707695,155.479248,108.409218,171.791916,136.653091,66.564812
726,0,-91.452934,149.086884,97.356949,66.441849,154.396179,114.211021,123.134453,154.607803,108.331100,171.410034,136.137604,66.598816
727,0,-91.885986,148.919189,96.697174,65.771080,154.081207,113.650581,122.591988,153.845276,108.154434,171.034363,135.476105,66.594048
728,0,-92.290428,148.879013,96.105209,65.178200,154.004288,113.044807,121.986847,153.769547,107.713203,170.664047,135.343750,66.631294
729,0,-92.620255,148.873154,95.511284,64.506424,154.141022,112.573372,121.288277,154.237595,107.223129,170.299286,135.546692,66.728966
730,0,-92.986938,148.891159,94.994942,63.789719,154.320908,112.017151,120.668495,154.641617,106.786362,169.976013,135.895340,66.822449
731,0,-93.408539,148.864914,94.530014,63.106560,154.492264,111.582954,119.957428,154.983841,106.389244,169.541092,136.198364,66.820107
732,0,-93.931961,148.823685,94.209412,62.384296,154.572479,111.116165,119.301254,155.255112,106.074310,169.151245,136.501297,66.838524
733,0,-94.481178,148.701736,93.915642,61.795200,154.613174,110.754524,118.659927,155.497910,105.770119,168.711853,136.838821,66.948257
734,0,-95.101402,148.567154,93.731606,61.225044,154.683960,110.388512,118.180283,155.799484,105.472473,168.421616,137.074249,66.956894
735,0,-95.615341,148.484192,93.584946,60.845692,154.725266,110.080864,117.727409,156.003372,105.214081,168.112457,137.216934,66.998459
736,0,-96.023010,148.547089,93.372604,60.390530,154.885391,109.766212,117.249458,156.191422,104.942207,167.865921,137.362427,66.947777
737,0,-96.403046,148.819580,93.159195,59.978970,155.044235,109.434326,116.808914,156.450043,104.748947,167.571869,137.541946,66.919014
738,0,-96.599594,149.239014,92.995010,59.273960,155.467697,109.289894,116.382462,156.760239,104.652260,167.238342,137.713425,66.861084
739,0,-96.878136,149.675308,92.905907,59.210350,155.659012,109.142525,116.048195,157.039078,104.599548,166.864090,137.834625,66.800522
740,0,-97.008743,150.102936,92.832138,58.671925,156.166321,109.096962,115.698624,157.423355,104.550362,166.494431,138.016190,66.705185
741,0,-97.218864,150.546463,92.737495,58.356873,156.518143,109.015945,115.375710,157.849106,104.450905,166.164963,138.277786,66.633682
742,0,-97.444954,150.970825,92.656158,58.084801,156.844757,108.868294,115.062080,158.233765,104.288109,165.820724,138.523926,66.579109
743,0,-97.731232,151.370331,92.541550,57.887962,157.156326,108.573334,114.752663,158.674118,104.061600,165.635834,138.760361,66.632332
744,0,-98.049591,151.669968,92.373016,57.599850,157.479660,108.061157,114.346626,159.103790,103.673096,165.447815,138.946930,66.673859
745,0,-98.434723,152.019440,92.127792,57.220165,157.687546,107.501015,113.897018,159.367096,103.226906,165.312103,139.100037,66.700531
746,0,-98.785088,152.358002,91.860405,56.902790,157.952301,106.791344,113.536469,159.626190,102.739105,165.300644,139.224335,66.738182
747,0,-99.309959,152.664154,91.624596,56.641502,158.090958,106.021591,113.188217,159.698334,102.269806,165.256042,139.289703,66.742371
748,0,-99.736839,153.017105,91.366592,56.397816,158.189026,105.258354,112.846062,159.704971,101.745125,165.227432,139.326508,66.739006
749,0,-100.158882,153.362900,91.259239,56.200527,158.180008,104.566109,112.486671,159.600876,101.257591,165.265076,139.335022,66.755936
750,0,-100.527351,153.648026,91.313965,56.106155,158.196121,104.105888,112.331841,159.691650,100.927063,165.360657,139.426636,66.709496
751,0,-100.900444,153.947327,91.606453,56.065483,158.231216,103.761093,112.124519,159.436234,100.645012,165.352402,139.308609,66.687035
752,0,-101.388550,154.258041,92.196938,56.168331,158.299149,103.691101,112.025490,159.174011,100.470596,165.364197,139.191681,66.697479
753,0,-101.991806,154.525757,92.991554,56.348591,158.388962,103.907608,111.989929,158.819519,100.471420,165.358582,138.966766,66.735001
754,0,-102.685875,154.769485,94.389839,56.593979,158.457214,104.462212,112.001884,158.035965,100.661133,165.310547,138.466461,66.785316
755,0,-103.371346,154.949112,95.908661,57.056274,158.440216,105.412392,112.084778,157.428207,101.071396,165.207718,138.105255,66.866661
756,0,-103.968651,155.017059,97.600639,57.324863,158.275360,106.770134,112.233612,156.725891,101.578156,165.031128,137.762695,67.006416
757,0,-104.618599,155.023193,99.428497,57.735821,157.780777,108.516495,112.548920,156.096756,102.330101,164.862152,137.634613,67.167572
758,0,-105.177223,154.856308,101.205872,57.984356,157.217850,110.637703,112.777153,155.133133,103.101585,164.507568,137.052704,67.394096
759,0,-105.395157,154.581787,102.875237,58.201847,156.590439,113.088104,113.187317,154.259964,104.334862,163.923080,136.826355,67.329002
760,0,-105.788239,154.252853,104.400291,58.401657,155.739914,115.916992,113.437828,153.675583,106.101517,163.164627,136.993073,67.377609
761,0,-105.775658,153.785202,105.973785,58.351925,154.817154,118.922501,113.643486,153.380463,108.129341,162.361679,137.151337,68.099174
762,0,-106.011017,153.340500,107.528008,57.976421,154.001740,121.926414,113.487122,153.061401,110.642235,161.774002,137.003967,70.066269
763,0,-106.332588,152.813278,108.916824,57.563202,153.265732,124.957718,113.196335,152.409164,113.920441,161.459641,136.372894,73.255623
764,0,-106.591461,152.324280,110.331322,56.902843,152.401840,128.118744,112.513000,151.421524,117.820068,161.161819,135.338806,77.426567
765,0,-107.137604,151.757431,111.655716,55.902309,151.295456,131.477478,111.724312,150.252670,122.123573,160.782104,134.213287,82.079735
766,0,-107.827553,151.124451,113.060684,54.761524,149.829544,134.961014,110.723175,148.821167,126.682205,160.102936,132.794281,86.941238
767,0,-108.589325,150.265274,114.221687,53.275013,147.912125,138.529251,109.445854,147.037277,131.471985,159.250839,130.894089,91.876450
768,0,-109.484840,149.392395,115.425179,51.664669,145.567566,142.157135,107.964714,144.687271,136.220062,157.885635,128.267822,96.368561
769,0,-110.275436,148.381607,116.373558,49.751118,143.017960,145.651672,106.279785,141.814117,141.025497,155.786926,124.699539,100.131378
770,0,-111.058205,147.332138,117.247116,47.766903,140.217224,149.080765,104.478699,138.456787,145.711685,152.952805,120.303207,103.216980
771,0,-112.243507,146.320129,118.201714,45.602329,137.307663,152.339722,102.615463,134.635406,150.144455,149.424973,115.175697,105.737686
772,0,-113.239113,145.059647,118.796829,43.199596,134.206818,155.493179,100.495956,130.430557,154.257172,145.438263,109.368011,108.195969
773,0,-114.233536,143.684952,119.265442,40.954041,130.910843,158.221680,98.147232,125.985649,158.046295,141.514374,103.693344,110.646950
774,0,-115.246582,142.047729,119.380882,38.373631,127.533226,160.489532,95.577431,121.354256,161.737656,137.510040,98.117264,112.888382
775,0,-116.475632,140.537811,119.638733,36.011051,123.928337,162.456390,93.080795,116.699448,164.792664,133.470444,92.717850,114.735321
776,0,-117.525352,138.694885,119.538406,33.563290,120.064201,164.048996,90.613472,112.088120,167.313354,128.752640,87.307625,115.588173
777,0,-118.795441,136.801270,119.431465,31.123968,115.927383,165.307938,88.408516,107.286583,169.160202,123.527901,81.771164,115.712502
778,0,-119.830650,134.792038,119.127205,28.748728,111.638512,166.172409,86.260017,101.815575,170.365433,118.049576,76.249146,115.370224
779,0,-120.795319,132.716049,118.609200,26.482262,107.300987,166.668182,84.061958,96.360313,171.051346,112.350380,70.963844,114.377594
780,0,-121.985420,130.645248,117.854401,24.288157,103.119133,166.838760,81.973930,90.785011,171.278290,106.874962,65.274094,113.257729
781,0,-122.882408,128.633163,117.065239,22.217707,99.079987,166.534286,79.859261,85.046509,171.078491,101.722420,59.471474,111.986267
782,0,-123.705360,126.667824,115.933556,20.350657,95.152161,165.971039,77.910950,79.184845,170.268433,96.793762,54.099556,110.239449
783,0,-124.388275,124.754929,114.839508,18.667881,91.127869,165.143478,75.998840,73.506607,168.987518,92.331253,49.305214,108.054771
784,0,-125.056816,123.241035,113.559380,17.023220,86.734688,163.796402,74.340088,68.244461,167.314835,88.477295,44.846935,105.992714
785,0,-125.474754,121.035355,112.109764,15.252033,82.620529,162.308487,72.725716,63.303196,165.199295,84.717270,40.568649,103.150673
786,0,-126.130569,119.041725,110.679047,13.668192,78.645760,160.344147,71.135719,58.404671,163.009155,81.743340,36.231716,100.559090
787,0,-126.535774,117.166344,108.905006,12.199371,74.837158,158.176102,69.551094,53.568058,160.633041,79.098534,31.893753,97.983131
788,0,-127.044815,114.831184,107.055801,11.374214,71.235558,155.746063,68.212463,48.876808,157.976196,76.490303,27.691114,95.122086
789,0,-127.549141,112.549797,105.372780,10.325067,68.009644,153.163132,67.075851,44.534828,154.987442,74.106628,23.830208,91.897705
790,0,-127.794373,110.758781,103.411217,9.750987,65.030014,150.495209,66.290184,40.717106,151.768921,71.912292,20.397465,88.508476
791,0,-127.711205,109.050751,101.133842,9.332007,62.068695,147.646378,65.686981,37.381237,148.287506,70.100357,17.258339,84.992599
792,0,-127.628922,107.319267,99.099457,9.139045,59.128613,144.623322,65.410149,34.221310,144.692871,68.293877,14.271046,81.317688
793,0,-127.567215,105.583427,97.057274,8.971683,56.198292,141.260315,65.118294,30.917570,140.944763,66.737007,11.254697,77.600525
794,0,-127.642647,103.973358,95.136917,8.849049,53.265499,137.897217,64.786903,27.360350,136.992844,65.148003,8.170014,73.601265
795,0,-127.430168,102.731194,93.092918,8.880948,50.332970,134.399277,64.619621,23.769850,132.712448,63.835464,5.110454,69.332916
796,0,-127.248360,100.714706,90.999199,9.087411,47.499401,130.823807,64.423500,20.287300,128.344986,62.389103,2.329990,65.142067
797,0,-127.399963,99.345909,89.278900,9.213901,44.927158,127.228271,64.246048,17.110477,123.815399,61.293678,0.010346,60.483700
798,0,-127.353027,98.156166,87.149719,9.466125,42.653225,123.666466,64.279617,14.425315,119.374542,60.677933,-2.080931,55.723927
799,0,-127.288834,96.986633,85.152260,9.767460,40.758930,120.120499,64.411911,12.304275,115.001099,59.956589,-3.687411,51.188595
800,0,-127.335609,95.918839,83.114594,10.058333,39.254566,116.600006,64.627968,10.761233,110.864693,59.671268,-5.394100,47.238586
801,0,-127.319054,94.834122,80.971001,10.423566,38.036633,113.041191,64.925514,9.602740,106.934387,59.199921,-6.559935,43.334167
802,0,-127.237473,94.131279,78.830788,10.643371,37.052361,109.685158,64.990189,8.570610,103.154984,58.771297,-7.722825,39.720798
803,0,-127.180069,93.428032,76.729271,10.856466,36.247795,106.431763,65.038963,7.658330,99.497742,58.012093,-8.673662,36.117706
804,0,-127.173332,92.814240,74.686760,10.883959,35.557228,103.434044,64.963669,6.715295,95.841469,56.933086,-9.410936,32.732063
805,0,-127.053825,92.248787,72.800407,11.171888,35.007252,100.442078,65.034828,5.941449,92.283272,55.917618,-10.023535,29.251974
806,0,-127.167183,91.857841,70.907288,11.268113,34.500504,97.552948,65.138283,5.271173,88.794685,54.870041,-10.680536,26.191113
807,0,-127.322319,91.272339,69.152649,11.357394,34.026405,94.761581,65.171036,4.668735,85.541420,53.802151,-11.092726,23.235165
808,0,-127.489029,90.811546,67.439247,11.466771,33.508415,92.132317,65.086929,4.125932,82.550529,53.111931,-11.660716,20.362040
809,0,-127.598495,90.302521,65.682549,11.431898,33.008537,89.634315,65.000961,3.542424,79.741898,52.636765,-12.367826,17.757416
810,0,-127.632614,89.864044,64.076981,11.338337,32.510677,87.326538,64.720322,2.886431,77.255463,52.172546,-13.049812,15.275300
811,0,-127.709000,89.520264,62.386223,11.031591,32.036530,85.113182,64.484329,2.304118,75.076469,51.882706,-13.696504,13.141273
812,0,-127.768829,89.108604,60.808758,10.740591,31.654816,82.986687,64.101501,1.860292,73.118454,51.793655,-14.441873,10.994414
813,0,-127.711952,88.840889,59.263645,10.385975,31.474478,81.144669,63.949154,2.012971,72.286018,51.802856,-15.165925,10.633991
814,0,-127.745537,88.560684,57.626438,9.711567,31.678688,79.492821,63.815727,3.006450,71.872490,52.198498,-15.839475,10.652760
815,0,-127.783310,88.461571,56.234798,9.274170,32.053879,78.302841,63.691692,3.748971,71.580772,52.303268,-15.961163,10.674687
816,0,-127.904442,88.314087,55.082085,8.914763,32.398346,77.451447,63.529202,4.335816,71.337135,52.242287,-15.922523,10.653854
817,0,-128.092728,88.232773,54.221962,8.663236,32.730194,76.823730,63.408783,4.966457,71.097916,52.320110,-15.927807,10.593122
818,0,-128.231369,88.165833,53.531712,8.428833,33.022728,76.344200,63.292206,5.452728,70.947586,52.247551,-15.907628,10.561833
819,0,-128.298294,88.055588,53.003349,8.241575,33.215508,76.047882,63.214718,5.779395,70.796478,52.246124,-15.883418,10.571609
820,0,-128.281631,87.999886,52.638161,8.133181,33.347080,75.792725,63.152275,5.981618,70.724594,52.242622,-15.896739,10.553367
821,0,-128.223434,87.934418,52.298950,8.032593,33.370705,75.608017,63.065483,6.078962,70.684235,52.248669,-15.905747,10.518421
822,0,-128.194336,87.901619,52.029430,7.896859,33.338863,75.460678,62.971523,6.120070,70.653831,52.285088,-16.005211,10.543881
823,0,-128.139130,87.844292,51.768631,7.698854,33.180855,75.292015,62.832058,6.190870,70.593124,52.282806,-16.175264,10.552558
824,0,-128.132507,87.805244,51.510201,7.430536,33.075413,75.133591,62.692417,6.270677,70.536301,52.384174,-16.362907,10.540599
825,0,-128.223679,87.852135,51.251179,6.937295,33.085232,74.985283,62.390240,6.281380,70.515839,52.401024,-16.652456,10.458196
826,0,-128.359833,87.968987,51.025299,6.641631,33.041046,74.814514,62.055054,6.271715,70.494942,52.452709,-16.860506,10.426670
827,0,-128.461548,88.195061,50.750732,6.252115,33.135632,74.627518,61.607521,6.301858,70.524948,52.447624,-16.902031,10.371248
828,0,-128.504868,88.503853,50.440117,5.852746,33.306728,74.535934,61.222687,6.438197,70.564308,52.098923,-16.784599,10.426224
829,0,-128.650208,88.879158,50.231339,5.468729,33.585407,74.455681,60.835094,6.704629,70.540375,51.958454,-16.675493,10.397131
830,0,-128.749069,89.196335,49.996380,5.122414,33.911987,74.377319,60.485542,7.029012,70.477142,51.676384,-16.526978,10.362799
831,0,-128.895523,89.580673,49.769981,4.852959,34.203903,74.333847,60.046558,7.356231,70.402306,51.426586,-16.377136,10.320181
832,0,-128.998627,89.872787,49.611259,4.558589,34.621998,74.374481,59.696217,7.603714,70.266235,50.721695,-16.116541,10.291855
833,0,-129.100296,90.162888,49.416058,4.218543,34.909763,74.333000,59.372219,7.907515,70.190994,50.203182,-15.813358,10.231292
834,0,-129.188858,90.375549,49.203636,3.887846,35.055592,74.233154,59.092712,8.205604,70.150093,49.902130,-15.640038,10.234888
835,0,-129.289154,90.596046,49.028732,3.571900,35.256535,74.086411,58.750374,8.369234,70.207680,49.633446,-15.522427,10.169832
836,0,-129.491943,90.845322,48.839424,2.912712,35.507290,73.817459,58.072727,8.577529,70.285828,49.615158,-15.544272,10.064977
837,0,-129.711472,91.015114,48.691486,2.675450,35.443306,73.884727,57.617714,8.576485,70.320213,49.230827,-15.469702,10.121826
838,0,-130.001343,91.188316,48.504383,2.089422,35.559299,73.614021,57.183441,8.652743,70.318825,49.068932,-15.505048,10.138942
839,0,-130.249023,91.314095,48.311729,1.584603,35.590519,73.472389,56.677559,8.697530,70.303986,48.905563,-15.568553,10.108900
840,0,-130.567032,91.466690,48.127121,1.166058,35.662937,73.339134,56.160862,8.791745,70.269501,48.725094,-15.597813,10.125042
841,0,-130.869125,91.614296,47.931137,0.692435,35.830593,73.196480,55.679462,8.971221,70.270149,48.468876,-15.557205,10.037199
842,0,-131.144730,91.820091,47.635883,0.230008,35.998455,73.028557,55.264137,9.235228,70.250832,48.333977,-15.524523,10.069632
843,0,-131.396713,91.972824,47.432892,-0.225080,36.223614,72.891815,54.913757,9.582682,70.152901,48.139313,-15.400410,10.037546
844,0,-131.584244,92.197586,47.222977,-0.571948,36.432877,72.756889,54.556725,9.947989,70.102127,48.023445,-15.295125,10.037716
845,0,-131.841293,92.293243,47.029270,-1.009907,36.655354,72.690300,54.216526,10.349418,70.043114,47.926594,-15.076612,10.047605
846,0,-131.942276,92.371437,46.882881,-1.420153,36.924450,72.600159,53.957565,10.731967,70.007668,47.775887,-14.894916,10.038510
847,0,-132.112823,92.432068,46.772453,-1.765511,37.177666,72.529076,53.672089,11.112339,69.997360,47.600811,-14.659387,10.031265
848,0,-132.215500,92.441650,46.627529,-2.203941,37.373283,72.365593,53.443951,11.456860,69.959106,47.517326,-14.476677,10.014350
849,0,-132.311539,92.453300,46.541569,-2.380014,37.535889,72.432251,53.205814,11.694459,69.967117,47.454323,-14.369605,10.026435
850,0,-132.475052,92.461899,46.510971,-2.555166,37.635094,72.415581,53.026562,11.924552,69.966782,47.458126,-14.261154,10.046019
851,0,-132.597488,92.466438,46.428116,-2.743309,37.713596,72.377769,52.834377,12.078323,69.982224,47.446888,-14.249453,10.053015
852,0,-132.665741,92.523224,46.346977,-3.119248,37.750965,72.184540,52.624107,12.198099,69.958206,47.440247,-14.225219,10.048296
853,0,-132.657883,92.542854,46.310608,-3.283524,37.818829,72.151733,52.457031,12.308023,69.948914,47.415730,-14.179990,10.069584
854,0,-132.679688,92.622948,46.261940,-3.434299,37.922466,72.115501,52.314144,12.373507,69.977615,47.406204,-14.128923,10.079393
855,0,-132.684662,92.683395,46.220196,-3.582536,38.016682,72.051849,52.166576,12.442340,70.032440,47.404915,-14.082709,10.069582
856,0,-132.613937,92.729530,46.133930,-3.723606,38.082520,71.999931,52.044937,12.541459,70.061913,47.384483,-14.003768,10.080648
857,0,-132.583191,92.784103,46.102360,-3.879895,38.166878,71.948982,51.895679,12.627305,70.082634,47.350914,-13.956630,10.108809
858,0,-132.558502,92.836426,46.098301,-4.006220,38.269211,71.889626,51.746815,12.664565,70.106667,47.403809,-13.947905,10.109996
859,0,-132.522247,92.931160,46.092415,-3.998456,38.343239,71.983940,51.616188,12.715915,70.090736,47.339989,-13.880760,10.073879
860,0,-132.539734,92.928505,46.113312,-4.091238,38.396805,71.915283,51.487957,12.787392,70.107857,47.304375,-13.869951,10.040812
861,0,-132.480835,92.924896,46.135582,-4.357308,38.421314,71.702232,51.428207,12.785834,70.128189,47.371536,-13.885189,10.045889
862,0,-132.477829,92.887718,46.210358,-4.411942,38.414772,71.686630,51.314915,12.802382,70.133018,47.370441,-13.883280,10.041131
863,0,-132.526337,92.875877,46.297611,-4.354304,38.470257,71.818680,51.277969,12.831670,70.137535,47.385910,-13.911180,10.054210
864,0,-132.520401,92.848213,46.443108,-4.522371,38.421112,71.667915,51.196083,12.843809,70.103271,47.357208,-13.883390,10.055865
865,0,-132.513351,92.820511,46.599205,-4.593729,38.450581,71.658768,51.172787,12.889246,70.079979,47.333626,-13.881104,10.075034
866,0,-132.528671,92.801277,46.700226,-4.601479,38.457031,71.674843,51.175976,12.922731,70.088631,47.364510,-13.881207,10.078863
867,0,-132.430054,92.764778,46.863533,-4.589964,38.524727,71.663841,51.210629,12.921948,70.115730,47.396084,-13.917346,10.118515
868,0,-132.419678,92.826637,46.995331,-4.498797,38.511322,71.700233,51.232529,12.949557,70.111595,47.381573,-13.916519,10.141658
869,0,-132.283035,92.846680,47.134373,-4.462652,38.626923,71.694572,51.300743,12.969115,70.096367,47.400066,-13.903618,10.136336
870,0,-132.193802,92.903969,47.206120,-4.439115,38.637409,71.701561,51.408760,12.975157,70.095612,47.433552,-13.912148,10.128998
871,0,-132.138199,92.987801,47.325672,-4.417464,38.697609,71.738419,51.462341,12.979443,70.090240,47.523121,-13.912338,10.152729
872,0,-132.012299,93.014740,47.428875,-4.423624,38.751495,71.806053,51.490280,12.961763,70.087624,47.543533,-13.898047,10.165829
873,0,-131.915298,93.053612,47.488083,-4.419696,38.761005,71.833672,51.469051,12.968835,70.128525,47.570225,-13.886319,10.177683
874,0,-131.776276,93.056313,47.570892,-4.253746,38.663189,71.788574,51.513863,12.945488,70.140663,47.567181,-13.887464,10.169207
875,0,-131.709595,93.109230,47.631508,-4.210104,38.650757,71.789017,51.534416,12.952046,70.170174,47.604446,-13.921749,10.173196
876,0,-131.675980,93.130272,47.693325,-4.174007,38.731075,71.795708,51.542343,12.957359,70.174721,47.689884,-13.896876,10.218954
877,0,-131.645142,93.186737,47.788540,-4.191863,38.779247,71.807304,51.569988,12.984031,70.156891,47.703934,-13.845840,10.149925
878,0,-131.570709,93.203087,47.871216,-4.097346,38.835091,71.772942,51.621342,12.986091,70.194679,47.769009,-13.837675,10.109290
879,0,-131.506744,93.239349,47.937885,-4.044082,38.910110,71.806381,51.715420,13.022455,70.177895,47.857189,-13.832529,10.118057
880,0,-131.452530,93.269783,48.040981,-3.988033,38.952038,71.816872,51.760689,13.032850,70.197395,47.913975,-13.819669,10.103586
881,0,-131.298065,93.198898,48.127701,-3.898056,38.958557,71.817070,51.806545,13.053620,70.191551,47.979298,-13.818244,10.153539
882,0,-131.236603,93.206688,48.178452,-3.904632,38.962746,71.825844,51.849392,13.041925,70.223328,47.997849,-13.817849,10.124292
883,0,-131.625656,93.679268,48.256332,-3.810859,38.936577,71.851929,51.889748,13.003173,70.233620,48.030373,-13.823081,10.122542
884,0,-131.570862,93.617355,48.305038,-3.786019,38.902996,71.842949,51.905624,13.000154,70.262680,48.028038,-13.798409,10.115241
885,0,-131.458206,93.574768,48.336590,-3.756305,38.918842,71.877388,51.896133,12.995878,70.255867,48.078732,-13.809820,10.174246
886,0,-131.453644,93.538521,48.375347,-3.755027,38.936695,71.890457,51.917843,12.988891,70.276543,48.076015,-13.804045,10.189531
887,0,-131.035309,93.082115,48.399837,-3.390844,38.905209,71.820213,51.919533,12.986999,70.278236,48.023212,-13.843060,10.218386
888,0,-131.018936,93.058151,48.409149,-3.427887,38.907330,71.818474,51.915459,12.991241,70.271660,48.002388,-13.912345,10.289525
889,0,-131.015884,93.033157,48.452244,-3.472944,38.893604,71.811646,51.876247,13.000383,70.263672,48.026707,-13.937543,10.294356
890,0,-131.062500,93.004082,48.453712,-3.632668,38.878796,71.821899,51.889439,12.980873,70.262154,48.024429,-13.941022,10.299417
891,0,-131.049133,92.979195,48.453873,-3.685586,38.934124,71.793770,51.859943,13.012044,70.258156,48.012470,-13.937469,10.289199
892,0,-131.041962,92.931168,48.445827,-3.711407,38.941990,71.779327,51.852314,13.025290,70.235046,48.006149,-13.945404,10.272008
893,0,-131.025024,92.923790,48.445740,-3.522898,38.940525,71.727432,51.852280,13.052835,70.228958,48.006142,-13.951165,10.269372
894,0,-131.016754,92.889397,48.451294,-3.527321,38.987125,71.706993,51.831081,13.071324,70.187141,48.010914,-13.944250,10.253705
895,0,-131.006516,92.861969,48.425674,-3.538822,38.982956,71.696053,51.824745,13.089077,70.164345,48.002213,-13.942251,10.249777
896,0,-131.398026,93.255257,48.343056,-3.582616,38.967331,71.687744,51.807003,13.072071,70.159767,47.996960,-13.948614,10.231215
897,0,-131.405197,93.257439,48.334587,-3.631391,38.936268,71.690643,51.739265,13.043277,70.157745,47.982567,-13.987965,10.229166
898,0,-131.472458,93.219246,48.337368,-3.662613,38.892990,71.709702,51.684177,13.024151,70.193649,47.976410,-13.988789,10.228928
899,0,-131.471710,93.131477,48.358597,-3.709909,38.909176,71.723022,51.696259,13.024527,70.219666,47.951679,-13.996357,10.209414
900,0,-131.502731,93.124779,48.374908,-3.719517,38.910530,71.739410,51.691059,13.025418,70.234245,47.963490,-14.001240,10.216660
901,0,-131.543060,93.060333,48.375919,-3.688454,38.963512,71.733360,51.713894,13.098826,70.212471,47.986198,-13.944321,10.222731
