Trajectories
100
,,Sano:Wrist,,,Sano:MPH3,,,Sano:PIP3,,,Sano:DIP3,,,
Frame,Sub Frame,X,Y,Z,X,Y,Z,X,Y,Z,X,Y,Z
,,mm,mm,mm,mm,mm,mm,mm,mm,mm,mm,mm,mm
1,0,735.277039,176.020447,33.492573,741.306519,7.631687,-11.796880,736.336304,-31.959194,-55.020294,709.726746,-42.616688,-111.838493
2,0,735.262817,176.011734,33.498138,741.289307,7.620596,-11.797334,736.327393,-31.966585,-54.993378,709.726746,-42.616688,-111.838493
3,0,735.289917,176.020401,33.494640,741.297729,7.630589,-11.799909,736.336853,-31.980846,-55.010876,709.726746,-42.616688,-111.838493
4,0,735.285828,175.985794,33.510372,741.680908,7.469628,-11.641532,736.352539,-31.981750,-55.006481,709.767090,-42.613533,-111.841270
5,0,735.301086,175.989441,33.496185,741.712952,7.467719,-11.642555,736.355957,-31.989254,-54.985291,709.774170,-42.600681,-111.817444
6,0,735.313843,175.962677,33.480335,741.371887,7.595716,-11.734245,736.344543,-31.990402,-54.970966,709.776245,-42.606621,-111.815353
7,0,735.318787,175.946945,33.467365,741.374695,7.594241,-11.738186,736.378845,-32.005753,-54.963799,709.765442,-42.613346,-111.845474
8,0,735.340210,175.948624,33.492172,741.395264,7.546236,-11.753665,736.358032,-32.021252,-54.964226,709.775085,-42.612377,-111.873703
9,0,735.331543,175.937668,33.484074,741.415833,7.542233,-11.762739,736.352783,-32.045544,-54.947372,709.790955,-42.651253,-111.818718
10,0,735.316711,175.928146,33.498379,741.693787,7.429229,-11.651964,736.353577,-32.047092,-54.924816,709.778687,-42.648605,-111.859879
11,0,735.324219,175.903198,33.493797,741.417847,7.515687,-11.738800,736.325439,-32.055088,-54.930786,709.794800,-42.651852,-111.825073
12,0,735.294800,175.894104,33.478294,741.416321,7.497580,-11.743603,736.391602,-32.070366,-54.940910,709.765015,-42.668991,-111.859947
13,0,735.284973,175.874588,33.487549,741.420410,7.478770,-11.725713,736.346497,-32.089748,-54.929596,709.780396,-42.674702,-111.822586
14,0,735.297485,175.856094,33.507263,741.407043,7.461105,-11.718317,736.324280,-32.123249,-54.925327,709.773438,-42.704182,-111.849586
15,0,735.304382,175.842682,33.495586,741.635681,7.352737,-11.621607,736.321106,-32.127316,-54.914009,709.740173,-42.706600,-111.869911
16,0,735.311462,175.819550,33.485859,741.392761,7.407444,-11.717436,736.339294,-32.145264,-54.927193,709.745300,-42.710999,-111.880608
17,0,735.284424,175.786896,33.491432,741.434143,7.392524,-11.735716,736.352417,-32.169498,-54.939945,709.779358,-42.710060,-111.865082
18,0,735.294922,175.786896,33.503551,741.433411,7.374178,-11.738515,736.353577,-32.184879,-54.929798,709.755737,-42.732460,-111.884102
19,0,735.291809,175.788376,33.508690,741.667480,7.269516,-11.636284,736.354309,-32.200905,-54.938683,709.758301,-42.733757,-111.882904
20,0,735.298889,175.772202,33.491795,741.680664,7.268361,-11.689560,736.355042,-32.216171,-54.954441,709.759460,-42.733944,-111.884781
21,0,735.347473,175.753815,33.461685,741.447205,7.345026,-11.790256,736.366638,-32.217869,-54.950233,709.755798,-42.732918,-111.881622
22,0,735.342712,175.760132,33.479744,741.459595,7.343687,-11.772818,736.373108,-32.217037,-54.955666,709.757019,-42.733570,-111.881035
23,0,735.341431,175.758530,33.482834,741.731018,7.239436,-11.685568,736.363831,-32.222355,-54.953758,709.788208,-42.734627,-111.862946
24,0,735.363464,175.770355,33.509663,741.735352,7.247607,-11.695128,736.367249,-32.217598,-54.948681,709.755737,-42.732460,-111.884102
25,0,735.385254,175.773560,33.490856,741.519409,7.316312,-11.771980,736.406494,-32.206661,-54.939274,709.755615,-42.734730,-111.879700
26,0,735.423950,175.790283,33.503590,741.544922,7.344905,-11.761101,736.411438,-32.203991,-54.951923,709.786499,-42.727390,-111.849586
27,0,735.416321,175.788040,33.508297,741.789307,7.276222,-11.686960,736.409973,-32.204941,-54.950237,709.751282,-42.735920,-111.880089
28,0,735.450867,175.775223,33.512634,741.760132,7.248471,-11.685718,736.401123,-32.207870,-54.941238,709.754211,-42.733612,-111.882751
29,0,735.452515,175.791580,33.527592,741.507812,7.334371,-11.780361,736.368164,-32.217896,-54.940311,709.749878,-42.737068,-111.878761
30,0,735.457520,175.764389,33.518837,741.768677,7.257022,-11.687306,736.400818,-32.206623,-54.945007,709.755798,-42.732918,-111.881622
31,0,735.427002,175.781464,33.491409,741.772095,7.231575,-11.692832,736.395691,-32.206974,-54.944725,709.756775,-42.734917,-111.881569
32,0,735.417053,175.777664,33.490784,741.543579,7.323481,-11.781699,736.387634,-32.206772,-54.950024,709.752563,-42.736115,-111.881958
33,0,735.433044,175.761734,33.509533,741.777954,7.242041,-11.683989,736.415222,-32.220684,-54.950371,709.790527,-42.728333,-111.867493
34,0,735.432556,175.763931,33.533089,741.772278,7.234216,-11.686880,736.400513,-32.233463,-54.956127,709.754211,-42.733612,-111.882751
35,0,735.432922,175.772430,33.518276,741.783325,7.240708,-11.689780,736.443359,-32.244720,-54.937500,709.791748,-42.728939,-111.866966
36,0,735.440247,175.773285,33.523727,741.789062,7.245521,-11.692975,736.445374,-32.253567,-54.946865,709.805725,-42.730343,-111.826324
37,0,735.513672,175.761917,33.498688,741.565369,7.311080,-11.772307,736.428406,-32.259350,-54.956718,709.799805,-42.715733,-111.858536
38,0,735.501770,175.745377,33.507942,741.880981,7.224040,-11.695025,736.452332,-32.258598,-54.988041,709.794800,-42.714172,-111.855934
39,0,735.536194,175.755737,33.507401,741.916321,7.215298,-11.703635,736.504272,-32.251411,-54.981834,709.852356,-42.744061,-111.840782
40,0,735.622131,175.720718,33.491928,741.722778,7.261092,-11.793627,736.596741,-32.279221,-54.971378,709.857361,-42.743343,-111.846176
41,0,735.637878,175.718353,33.500854,741.755005,7.247663,-11.820532,736.608582,-32.305386,-54.987865,709.866028,-42.738674,-111.817070
42,0,735.685669,175.675003,33.472679,741.859436,7.220724,-11.831032,736.671326,-32.325764,-55.016056,709.867493,-42.770241,-111.837708
43,0,735.746033,175.620178,33.453598,742.151855,7.115296,-11.726641,736.741455,-32.354809,-55.065331,709.861450,-42.765949,-111.837631
44,0,735.860168,175.615234,33.475876,742.279114,7.066317,-11.734129,736.821899,-32.379662,-55.078999,709.860779,-42.762325,-111.837402
45,0,735.984375,175.599991,33.468159,742.160156,7.112604,-11.813704,736.904541,-32.419685,-55.080433,709.859741,-42.762527,-111.833405
46,0,736.059082,175.572815,33.448818,742.468872,7.012570,-11.706713,736.940613,-32.442360,-55.108810,709.870789,-42.781075,-111.836136
47,0,736.151611,175.547440,33.432892,742.591003,6.979359,-11.736531,736.999939,-32.478996,-55.147610,709.887573,-42.765610,-111.847183
48,0,736.194153,175.509201,33.441284,742.646179,6.936304,-11.761328,737.047180,-32.501575,-55.162182,709.938599,-42.787521,-111.854332
49,0,736.281250,175.502350,33.422676,742.685303,6.925180,-11.758657,737.090088,-32.510578,-55.182236,709.966003,-42.784435,-111.837212
50,0,736.327393,175.509827,33.404892,742.778381,6.909037,-11.748669,737.125061,-32.541489,-55.192738,709.976318,-42.811958,-111.826385
51,0,736.402100,175.490646,33.410633,742.587952,6.973933,-11.881248,737.177429,-32.534409,-55.216576,709.982910,-42.808689,-111.840408
52,0,736.424805,175.483521,33.405933,742.806335,6.871539,-11.783851,737.163025,-32.548031,-55.236553,709.978943,-42.809551,-111.835480
53,0,736.441284,175.491226,33.411221,742.813721,6.878519,-11.794707,737.149475,-32.551208,-55.246410,709.949646,-42.822243,-111.834312
54,0,736.431519,175.519775,33.414692,742.813477,6.881896,-11.762535,737.175110,-32.546761,-55.193344,709.952026,-42.815578,-111.855415
55,0,736.449646,175.496368,33.438835,742.827576,6.870143,-11.733425,737.147217,-32.551361,-55.214600,709.941101,-42.784943,-111.863609
56,0,736.445496,175.503983,33.422462,742.841553,6.848536,-11.745261,737.113525,-32.579582,-55.233959,709.945740,-42.813416,-111.837334
57,0,736.419067,175.477905,33.411533,742.812805,6.844426,-11.738172,737.107178,-32.586414,-55.220409,709.945984,-42.817123,-111.843010
58,0,736.410034,175.470673,33.416321,742.856445,6.830811,-11.711305,737.106689,-32.584499,-55.209892,709.928162,-42.806946,-111.858292
59,0,736.431091,175.470673,33.435287,742.855347,6.782000,-11.695564,737.115417,-32.590588,-55.210201,709.951660,-42.824535,-111.835899
60,0,736.417114,175.462646,33.444374,742.862854,6.772615,-11.704063,737.118408,-32.611073,-55.211555,709.942749,-42.842457,-111.859856
61,0,736.427307,175.459229,33.447983,742.845642,6.794861,-11.704140,737.112244,-32.604187,-55.202038,709.944275,-42.841225,-111.861214
62,0,736.409912,175.455414,33.422825,742.890991,6.767522,-11.692967,737.113708,-32.614208,-55.233276,709.944397,-42.841717,-111.858696
63,0,736.424377,175.452881,33.402645,742.898438,6.779035,-11.704638,737.132874,-32.615017,-55.229931,709.940491,-42.842094,-111.856094
64,0,736.431152,175.451263,33.405167,742.971375,6.740228,-11.672976,737.141846,-32.615139,-55.215248,709.934326,-42.836006,-111.841713
65,0,736.443298,175.456909,33.404129,743.064636,6.698560,-11.633899,737.135925,-32.623653,-55.229660,709.942078,-42.838852,-111.859489
66,0,736.477173,175.484985,33.410660,742.984863,6.725060,-11.661390,737.135437,-32.616322,-55.226143,709.944275,-42.843616,-111.856728
67,0,736.493164,175.483765,33.417099,742.985168,6.746934,-11.707767,737.143738,-32.607399,-55.250336,709.941895,-42.840740,-111.857536
68,0,736.494263,175.461365,33.377048,742.623718,6.888392,-11.865636,737.146790,-32.606266,-55.243484,709.887085,-42.781635,-111.881241
69,0,736.514771,175.449692,33.422764,742.857727,6.796597,-11.760699,737.138916,-32.618813,-55.240971,709.926392,-42.802345,-111.869453
70,0,736.519958,175.442963,33.395115,742.878113,6.780638,-11.771660,737.156433,-32.632515,-55.255520,709.887329,-42.779877,-111.883141
71,0,736.527893,175.455414,33.436237,742.868652,6.776180,-11.754358,737.157837,-32.650463,-55.237144,709.928955,-42.803204,-111.870689
72,0,736.534729,175.443161,33.425957,742.853638,6.757658,-11.731284,737.131470,-32.636765,-55.236565,709.942871,-42.842945,-111.857346
73,0,736.493835,175.412781,33.405003,742.875183,6.726559,-11.735058,737.143005,-32.678009,-55.259441,709.940979,-42.838673,-111.857605
74,0,736.477722,175.415695,33.397667,742.891663,6.707871,-11.733123,737.154541,-32.697517,-55.254436,709.903137,-42.820694,-111.887001
75,0,736.497925,175.399902,33.395443,742.878601,6.691885,-11.740915,737.149170,-32.698135,-55.252911,709.943665,-42.842419,-111.913483
76,0,736.512329,175.381073,33.384785,742.949463,6.669593,-11.733697,737.151428,-32.719166,-55.258179,709.947144,-42.837482,-111.882500
77,0,736.527100,175.383347,33.388802,742.611389,6.766530,-11.899180,737.141907,-32.724945,-55.271591,709.952576,-42.838207,-111.881775
78,0,736.525513,175.378555,33.388092,742.888123,6.671978,-11.759572,737.158447,-32.734486,-55.282299,709.943481,-42.841904,-111.915802
79,0,736.527344,175.383423,33.363102,742.946594,6.671822,-11.765468,737.165161,-32.740993,-55.285942,709.943542,-42.839520,-111.920013
80,0,736.570190,175.351715,33.398766,742.959412,6.643674,-11.755578,737.207275,-32.770897,-55.288311,709.949768,-42.869312,-111.904686
81,0,736.619995,175.360550,33.411007,742.956238,6.639367,-11.761803,737.230103,-32.769165,-55.280994,709.959351,-42.871365,-111.915283
82,0,736.646484,175.360565,33.410172,743.006653,6.627935,-11.756619,737.256348,-32.772991,-55.275295,709.963440,-42.871265,-111.930389
83,0,736.662659,175.339722,33.396759,743.051331,6.591386,-11.764416,737.254028,-32.786728,-55.294060,709.963013,-42.872147,-111.933205
84,0,736.707153,175.309982,33.399200,743.093628,6.563554,-11.755362,737.305908,-32.801777,-55.291912,709.973022,-42.857189,-111.926346
85,0,736.712158,175.283478,33.383400,743.149902,6.542452,-11.767966,737.416138,-32.821175,-55.275688,709.961487,-42.869328,-111.926598
86,0,736.732788,175.288345,33.402451,743.220520,6.516681,-11.738338,737.422241,-32.838009,-55.295105,709.976868,-42.853554,-111.936417
87,0,736.705994,175.279755,33.363853,743.247864,6.507554,-11.747319,737.440002,-32.851692,-55.291382,709.973328,-42.871998,-111.954407
88,0,736.705688,175.268707,33.365456,743.280334,6.482807,-11.738756,737.397400,-32.854885,-55.335785,709.984375,-42.858982,-111.947220
89,0,736.696045,175.274490,33.374077,743.198303,6.500144,-11.768857,737.404419,-32.854828,-55.319008,709.974731,-42.869865,-111.960709
90,0,736.680603,175.271225,33.363388,743.172913,6.515539,-11.757932,737.382690,-32.870274,-55.311859,709.976685,-42.874496,-111.957886
91,0,736.709900,175.298508,33.416473,743.306763,6.450924,-11.692686,737.377930,-32.847397,-55.314884,709.978516,-42.878834,-111.957504
92,0,736.660828,175.286880,33.392929,743.260254,6.444698,-11.650010,737.312561,-32.817059,-55.323612,709.976379,-42.876022,-111.958298
93,0,736.648438,175.296188,33.401924,743.188049,6.484725,-11.699986,737.287842,-32.836067,-55.301418,709.968018,-42.873688,-111.952141
94,0,736.665283,175.303391,33.421429,743.289551,6.471981,-11.631310,737.274048,-32.827980,-55.270153,709.965759,-42.874573,-111.927353
95,0,736.657654,175.314896,33.431526,743.288269,6.457079,-11.614059,737.251404,-32.831738,-55.279503,709.962524,-42.873852,-111.918671
96,0,736.729553,175.285446,33.407711,743.165466,6.511502,-11.689889,737.278198,-32.832539,-55.281559,709.969177,-42.869366,-111.883347
97,0,736.724792,175.283554,33.416855,743.178406,6.511980,-11.724194,737.342407,-32.819920,-55.288483,709.957764,-42.872704,-111.913818
98,0,736.715942,175.276474,33.406132,743.338196,6.428998,-11.663359,737.399536,-32.860874,-55.295879,709.969055,-42.870247,-111.945732
99,0,736.715637,175.261826,33.402824,743.381042,6.386770,-11.652664,737.417847,-32.883354,-55.290863,709.964966,-42.870163,-111.945580
100,0,736.732483,175.214645,33.382816,743.388550,6.390218,-11.680039,737.385742,-32.898273,-55.332901,709.979553,-42.898411,-111.948174
101,0,736.744080,175.222656,33.388935,743.213257,6.412227,-11.779847,737.452698,-32.930641,-55.323963,709.982300,-42.899502,-111.962173
102,0,736.724365,175.178192,33.402504,743.327637,6.349944,-11.713229,737.446838,-32.973297,-55.315655,709.987915,-42.899925,-111.972122
103,0,736.724304,175.166245,33.400604,743.261597,6.339642,-11.761232,737.510315,-32.962540,-55.304577,709.989197,-42.900532,-111.971497
104,0,736.747314,175.152313,33.420540,743.284912,6.322845,-11.719612,737.508484,-32.978245,-55.314667,709.997498,-42.922894,-111.965706
105,0,736.749390,175.129257,33.442013,743.493347,6.260364,-11.685539,737.526672,-32.999279,-55.310947,709.995728,-42.926067,-111.962296
106,0,736.752686,175.129593,33.439671,743.401245,6.285389,-11.720819,737.525513,-33.025681,-55.332993,710.054932,-42.936100,-111.948166
107,0,736.759033,175.124344,33.431473,743.312195,6.307020,-11.751730,737.568420,-33.046223,-55.335110,710.055420,-42.936661,-111.958549
108,0,736.761169,175.074905,33.412045,743.394836,6.268933,-11.755569,737.556641,-33.065376,-55.345100,710.059082,-42.933315,-111.953362
109,0,736.810913,175.081375,33.396366,743.088013,6.362915,-11.890597,737.602661,-33.068325,-55.361633,710.083191,-42.924889,-112.008575
110,0,736.852905,175.075211,33.392590,743.364868,6.290686,-11.810478,737.630371,-33.079475,-55.376106,710.051147,-42.929379,-112.023834
111,0,736.891052,175.063751,33.395725,743.166443,6.359798,-11.895329,737.665588,-33.091465,-55.376705,710.091248,-42.920868,-112.021606
112,0,736.886963,175.063583,33.391975,743.419983,6.262359,-11.836857,737.679443,-33.088612,-55.383144,710.106934,-42.922089,-111.984764
113,0,736.956848,175.068375,33.391750,743.215698,6.331439,-11.888001,737.723511,-33.095936,-55.400291,710.092468,-42.921040,-112.023453
114,0,737.000732,175.066864,33.359020,743.248657,6.343828,-11.884534,737.736084,-33.088692,-55.407909,710.078979,-42.919659,-111.993431
115,0,737.027649,175.074081,33.374069,743.273071,6.347970,-11.903297,737.744568,-33.098694,-55.403175,710.089600,-42.927147,-111.987358
116,0,737.028015,175.083984,33.367729,743.268311,6.347442,-11.888420,737.765320,-33.081657,-55.375656,710.088867,-42.927025,-111.932320
117,0,737.043884,175.082764,33.367313,743.512939,6.256696,-11.797223,737.764221,-33.075180,-55.361374,710.087769,-42.923203,-111.941879
118,0,737.056396,175.085846,33.378090,743.259155,6.350134,-11.882320,737.714905,-33.094086,-55.375748,710.091248,-42.926868,-111.938240
119,0,737.055054,175.067444,33.358032,743.250122,6.347642,-11.874247,737.715515,-33.106636,-55.395779,710.087585,-42.925945,-111.935257
120,0,737.065735,175.079575,33.386398,743.272339,6.336535,-11.865000,737.710571,-33.099873,-55.384762,710.072876,-42.924458,-111.973091
121,0,737.062195,175.079025,33.377316,743.266479,6.321869,-11.867126,737.710999,-33.119099,-55.390476,710.072876,-42.923969,-111.975304
122,0,737.050476,175.066925,33.398769,743.229919,6.297118,-11.877950,737.710693,-33.128235,-55.396713,710.069580,-42.964722,-111.971016
123,0,737.027405,175.032028,33.365917,743.434448,6.217345,-11.805082,737.715393,-33.156353,-55.379723,710.089050,-42.955585,-111.958115
124,0,737.031799,175.032059,33.362061,743.240906,6.275478,-11.873489,737.712585,-33.150848,-55.392048,710.084473,-42.951191,-111.968628
125,0,737.021484,175.033646,33.365948,743.287781,6.276704,-11.875649,737.713501,-33.155678,-55.385891,710.083069,-42.952343,-111.967247
126,0,737.025085,175.033249,33.364323,743.308167,6.268334,-11.840490,737.777222,-33.168663,-55.371483,710.091370,-42.950184,-111.987015
127,0,737.032898,175.021667,33.385334,743.537109,6.190605,-11.775109,737.755066,-33.175697,-55.393867,710.051514,-42.952801,-111.996437
128,0,737.062500,175.016434,33.391842,743.343811,6.253059,-11.877221,737.776978,-33.194462,-55.406784,710.084961,-42.949764,-111.983208
129,0,737.052917,175.014954,33.375694,743.574829,6.179769,-11.788317,737.776855,-33.193691,-55.409374,710.090271,-42.948254,-111.987061
130,0,737.081238,174.999405,33.378517,743.346924,6.241538,-11.861120,737.812012,-33.196159,-55.435394,710.085144,-42.953594,-111.982315
131,0,737.083496,174.998795,33.385735,743.573669,6.157635,-11.783648,737.816284,-33.201637,-55.432529,710.044678,-42.955444,-111.975929
132,0,737.105713,174.969666,33.385330,743.567383,6.157633,-11.821548,737.821655,-33.221809,-55.437313,710.047180,-42.997585,-111.993439
133,0,737.123718,174.964539,33.366100,743.380737,6.206378,-11.889889,737.795410,-33.223629,-55.434761,710.016235,-42.979034,-112.004837
134,0,737.120422,174.965652,33.375908,743.393066,6.200421,-11.854405,737.813171,-33.227711,-55.432236,710.012695,-42.968300,-111.956223
135,0,737.108337,174.958847,33.378223,743.397766,6.199934,-11.864561,737.791443,-33.244267,-55.411896,710.015015,-42.968998,-111.957420
136,0,737.135742,174.947250,33.371246,743.411377,6.173726,-11.850854,737.809143,-33.257271,-55.435471,710.010925,-42.978962,-111.945877
137,0,737.107788,174.936142,33.377838,743.589294,6.091696,-11.769895,737.781555,-33.278934,-55.440849,710.007263,-42.982380,-111.976807
138,0,737.107910,174.928864,33.392384,743.636292,6.088594,-11.784060,737.784729,-33.286278,-55.426167,710.000244,-42.992065,-111.950439
139,0,737.066772,174.930145,33.389111,743.597717,6.066008,-11.764386,737.776672,-33.288734,-55.426186,710.001404,-42.992226,-111.952271
140,0,737.078247,174.898056,33.375713,743.395447,6.125018,-11.829317,737.782959,-33.323524,-55.439903,709.982422,-42.982334,-111.993721
141,0,737.049194,174.894791,33.349258,743.361145,6.105923,-11.831202,737.714905,-33.344826,-55.466766,709.963623,-42.995426,-112.005692
142,0,737.020020,174.877106,33.370571,743.597778,6.017404,-11.755704,737.739502,-33.368004,-55.461700,709.913818,-42.994431,-112.009789
143,0,737.030701,174.863937,33.365818,743.395203,6.096339,-11.842951,737.720276,-33.367413,-55.448986,709.904175,-43.008091,-112.036766
144,0,737.060242,174.854492,33.381859,743.612366,6.006409,-11.776996,737.740356,-33.376034,-55.471977,709.951660,-43.035145,-112.016106
145,0,737.097961,174.866852,33.376621,743.617493,5.983206,-11.758332,737.742371,-33.406765,-55.472473,709.952759,-43.035328,-112.017914
146,0,737.127930,174.837296,33.353115,743.442932,6.038661,-11.857649,737.778687,-33.418308,-55.461140,709.951843,-43.033329,-112.018028
147,0,737.177673,174.834488,33.369431,743.493347,6.012198,-11.825787,737.781128,-33.423565,-55.477863,709.959229,-43.036564,-112.016815
148,0,737.223938,174.814789,33.361492,743.539124,6.011491,-11.843550,737.819824,-33.426064,-55.506363,709.959045,-43.038406,-112.014900
149,0,737.286011,174.795578,33.339642,743.856262,5.912672,-11.755101,737.847778,-33.445339,-55.493649,709.974243,-43.021431,-112.039574
150,0,737.339539,174.791901,33.344738,743.875793,5.912848,-11.800597,737.868286,-33.461189,-55.515377,709.976807,-43.019352,-112.003288
151,0,737.418091,174.802307,33.331890,743.946838,5.880248,-11.790602,737.940002,-33.453758,-55.527302,709.984497,-43.021511,-112.037949
152,0,737.466553,174.793167,33.327290,744.035706,5.900530,-11.783062,737.939209,-33.466969,-55.541565,709.987122,-43.050861,-112.022209
153,0,737.537048,174.814392,33.293957,743.855225,5.975782,-11.903656,737.965332,-33.463326,-55.573090,709.982544,-43.044422,-112.009247
154,0,737.544128,174.826035,33.306480,743.863525,6.014529,-11.933767,737.980347,-33.447144,-55.594193,710.057800,-43.060631,-112.004036
155,0,737.564270,174.836502,33.276764,743.863953,6.031268,-11.944526,737.963379,-33.432571,-55.623131,710.033081,-43.047367,-112.022484
156,0,737.557129,174.841553,33.273182,743.855713,6.043893,-11.939916,737.940918,-33.427361,-55.628983,710.056885,-43.020889,-111.986923
157,0,737.556213,174.871475,33.278152,744.078369,5.961987,-11.847693,737.931519,-33.410736,-55.600910,710.060608,-43.024040,-112.002106
158,0,737.545532,174.873367,33.256805,744.062012,5.999865,-11.868577,737.922913,-33.379848,-55.596878,710.024963,-43.003120,-112.014343
159,0,737.588501,174.890015,33.270805,743.990784,6.005908,-11.837500,737.908936,-33.368816,-55.579514,710.056885,-43.022587,-112.001343
160,0,737.552246,174.918549,33.254192,743.747864,6.093830,-11.945308,737.910950,-33.388874,-55.556156,710.070496,-43.054432,-111.991989
161,0,737.559204,174.928741,33.244568,743.720215,6.094960,-11.932711,737.910095,-33.365974,-55.526562,710.069214,-43.053814,-111.992554
162,0,737.518799,174.915161,33.214542,743.698303,6.088146,-11.923442,737.926758,-33.382580,-55.502872,710.065186,-43.047279,-111.993378
163,0,737.510925,174.914383,33.259396,743.692566,6.098471,-11.919763,737.957886,-33.382881,-55.475201,710.055176,-43.046822,-111.966667
164,0,737.480164,174.943405,33.276848,743.646545,6.106128,-11.926971,737.952087,-33.399231,-55.453457,710.051086,-43.047306,-111.949081
165,0,737.471558,174.954102,33.314537,743.866760,6.040587,-11.805182,737.964600,-33.387440,-55.395344,710.065002,-43.047535,-111.907646
166,0,737.440735,174.946671,33.322754,743.854248,6.059904,-11.772388,738.001831,-33.387409,-55.354710,710.055359,-43.025703,-111.914665
167,0,737.436646,174.967133,33.328430,743.858643,6.061934,-11.777234,737.957031,-33.350826,-55.332371,710.054016,-43.025074,-111.915283
168,0,737.411194,174.970612,33.308353,743.612244,6.165709,-11.863404,737.966309,-33.367840,-55.313305,710.053162,-43.023029,-111.915398
169,0,737.403198,174.983688,33.285587,743.604492,6.180604,-11.865860,737.989197,-33.341663,-55.339561,710.052979,-43.024887,-111.913422
170,0,737.356750,175.005630,33.302334,743.570312,6.225322,-11.887596,737.931213,-33.339504,-55.327465,710.012146,-43.002304,-111.930885
171,0,737.349182,175.036652,33.303726,743.549316,6.229227,-11.896705,737.968628,-33.322254,-55.318985,710.054504,-43.006268,-111.921715
172,0,737.333252,175.054962,33.303329,743.517212,6.248780,-11.883359,737.935730,-33.302765,-55.339355,710.001953,-42.980751,-111.920334
173,0,737.285034,175.056000,33.273350,743.669678,6.187075,-11.821982,737.880798,-33.266182,-55.340588,709.999146,-42.984512,-111.911972
174,0,737.304077,175.077194,33.275341,743.432495,6.282128,-11.897830,737.855591,-33.253849,-55.333260,709.994324,-42.981236,-111.895081
175,0,737.239624,175.088364,33.259487,743.405090,6.303518,-11.874899,737.852417,-33.236382,-55.312889,709.995239,-42.982685,-111.897308
176,0,737.269531,175.097778,33.282463,743.412354,6.308194,-11.876437,737.827759,-33.235825,-55.334301,709.985779,-42.996002,-111.903603
177,0,737.272705,175.095139,33.281494,743.373352,6.309995,-11.881791,737.790283,-33.234108,-55.344196,709.982300,-42.995541,-111.898331
178,0,737.256714,175.105820,33.252625,743.355530,6.313750,-11.889904,737.781738,-33.227215,-55.352715,709.983398,-42.995251,-111.902397
179,0,737.241455,175.100555,33.256714,743.361023,6.314183,-11.885262,737.771362,-33.210083,-55.343662,709.947205,-42.998905,-111.917023
180,0,737.279358,175.079086,33.243835,743.591614,6.222296,-11.789019,737.752625,-33.200970,-55.363266,709.943237,-43.013405,-111.886696
181,0,737.264709,175.065735,33.258553,743.344360,6.294245,-11.890389,737.738098,-33.224060,-55.392372,709.897827,-43.004662,-111.944870
182,0,737.260376,175.062378,33.265076,743.377869,6.273496,-11.885595,737.735107,-33.241024,-55.398983,709.932556,-43.026321,-111.893806
183,0,737.264648,175.047302,33.254700,743.362183,6.261947,-11.883045,737.721130,-33.242950,-55.403778,709.889954,-43.001637,-111.914474
184,0,737.226379,175.043579,33.281681,743.369202,6.264728,-11.880200,737.715515,-33.240528,-55.402954,709.890869,-43.004406,-111.909554
185,0,737.238647,175.020203,33.280575,743.349121,6.262602,-11.903385,737.698120,-33.256844,-55.418877,709.896301,-43.003792,-111.933159
186,0,737.211426,175.016006,33.275932,743.577026,6.180241,-11.805723,737.668701,-33.267677,-55.422623,709.899841,-43.025200,-111.922180
187,0,737.202026,175.041519,33.273064,743.327942,6.250349,-11.888676,737.666321,-33.271076,-55.428894,709.891235,-43.004246,-111.924438
188,0,737.168640,175.049103,33.252686,743.549866,6.166836,-11.805223,737.664612,-33.281292,-55.431423,709.904358,-43.013435,-111.950516
189,0,737.158997,175.041916,33.251297,743.296509,6.243837,-11.898213,737.648376,-33.266941,-55.409801,709.906494,-43.014828,-111.946747
190,0,737.152283,175.039246,33.242653,743.286438,6.269771,-11.909993,737.647461,-33.268169,-55.401833,709.900696,-43.013828,-111.947906
191,0,737.153198,175.041641,33.248928,743.273621,6.246268,-11.886263,737.655640,-33.257984,-55.403393,709.902832,-43.015594,-111.941635
192,0,737.158875,175.050262,33.262394,743.295898,6.257241,-11.872463,737.711914,-33.252193,-55.380054,709.944824,-43.037472,-111.931053
193,0,737.156860,175.075058,33.262276,743.327881,6.260785,-11.878612,737.690308,-33.240635,-55.372482,709.961426,-43.022579,-111.924576
194,0,737.178406,175.074310,33.257599,743.341125,6.277631,-11.878073,737.737915,-33.245514,-55.384609,709.990967,-43.016384,-111.910698
195,0,737.196228,175.067352,33.267921,743.355164,6.281974,-11.867455,737.760071,-33.212776,-55.386433,709.993591,-42.994198,-111.928787
196,0,737.249451,175.078903,33.245235,743.377991,6.283901,-11.878247,737.791687,-33.227501,-55.394478,710.006042,-42.980270,-111.938065
197,0,737.285217,175.125885,33.251389,743.666321,6.243687,-11.815903,737.854797,-33.211391,-55.367466,710.004944,-42.980484,-111.933800
198,0,737.355957,175.118393,33.259827,743.707153,6.247351,-11.808053,737.881409,-33.190994,-55.393509,710.091064,-42.986176,-111.898048
199,0,737.428101,175.167496,33.239960,743.574524,6.349503,-11.916497,737.945923,-33.186611,-55.409554,710.115479,-42.963638,-111.906197
200,0,737.487061,175.164551,33.249878,743.604736,6.372047,-11.916950,737.988281,-33.152107,-55.392155,710.111877,-42.935486,-111.920334
201,0,737.517944,175.181320,33.243996,743.857300,6.310917,-11.832619,738.003357,-33.149418,-55.394394,710.107056,-42.936131,-111.913589
202,0,737.566040,175.190872,33.240101,743.658569,6.407225,-11.927846,738.042664,-33.135338,-55.386021,710.108154,-42.935879,-111.917740
203,0,737.584656,175.187683,33.223774,743.711609,6.403045,-11.940098,738.042114,-33.105942,-55.388195,710.115967,-42.916538,-111.900497
204,0,737.631775,175.198410,33.254124,743.735779,6.409668,-11.923435,738.042053,-33.134567,-55.391682,710.095276,-42.936501,-111.895264
205,0,737.698181,175.190536,33.236298,743.747559,6.393448,-11.919020,738.051697,-33.126595,-55.386810,710.145203,-42.956444,-111.848831
206,0,737.700928,175.182419,33.240021,743.969482,6.326459,-11.834126,738.031311,-33.122822,-55.382416,710.147339,-42.962784,-111.887093
207,0,737.696655,175.192001,33.256706,743.956665,6.303496,-11.839914,738.031677,-33.141582,-55.403133,710.099976,-42.938477,-111.895592
208,0,737.688232,175.169037,33.247765,743.920837,6.279298,-11.849187,738.024109,-33.140312,-55.412815,710.104004,-42.934460,-111.908112
209,0,737.702820,175.140671,33.219929,743.677002,6.353621,-11.932996,738.021606,-33.162674,-55.410561,710.104004,-42.934460,-111.908112
210,0,737.679993,175.142609,33.261738,743.895325,6.253392,-11.827745,737.953552,-33.190144,-55.422707,710.088379,-42.956394,-111.899406
211,0,737.647217,175.107422,33.271187,743.884888,6.240432,-11.833256,737.935913,-33.183704,-55.440193,710.093506,-42.955654,-111.906235
212,0,737.621582,175.092453,33.249950,743.868896,6.237536,-11.827654,737.920776,-33.221905,-55.415974,710.056824,-42.958534,-111.920883
213,0,737.613647,175.085480,33.253193,743.851746,6.203570,-11.821076,737.903076,-33.221802,-55.428982,710.050659,-42.963161,-111.907341
214,0,737.613037,175.080917,33.264965,743.860229,6.205503,-11.803733,737.903870,-33.217056,-55.425690,710.040588,-42.978168,-111.914520
215,0,737.614380,175.066666,33.256836,743.612610,6.275850,-11.901316,737.910339,-33.222336,-55.424767,709.995605,-42.953945,-111.929016
216,0,737.576904,175.071167,33.254047,743.843750,6.181448,-11.808726,737.903259,-33.232723,-55.436893,709.994507,-42.953362,-111.929588
217,0,737.610962,175.055099,33.251106,743.880981,6.174632,-11.825971,737.889526,-33.240200,-55.443359,710.005432,-42.981667,-111.923515
218,0,737.638123,175.050110,33.243084,743.924072,6.139180,-11.816262,737.904297,-33.261185,-55.463211,710.004272,-42.981094,-111.924072
219,0,737.634766,175.036469,33.268150,743.936523,6.149342,-11.816906,737.910522,-33.266384,-55.460815,710.005432,-42.981266,-111.925949
220,0,737.601440,175.028397,33.270500,743.983276,6.103758,-11.829117,737.911194,-33.282784,-55.472168,710.039429,-43.013073,-111.915588
221,0,737.600952,174.999252,33.263584,743.759399,6.175216,-11.900576,737.910461,-33.293804,-55.500347,710.005432,-42.981667,-111.923515
222,0,737.587158,174.988815,33.248741,743.797791,6.148037,-11.894590,737.927246,-33.338608,-55.523621,710.012756,-43.002796,-111.915451
223,0,737.565613,174.954224,33.254520,743.791504,6.128790,-11.903585,737.943787,-33.337193,-55.514431,709.998291,-43.016277,-111.917465
224,0,737.589783,174.958862,33.257824,743.804260,6.128342,-11.911766,737.945618,-33.357876,-55.512577,709.999573,-43.016438,-111.919312
225,0,737.584656,174.957809,33.247719,743.861206,6.123057,-11.926200,737.940979,-33.350071,-55.552349,710.008850,-43.012840,-111.946594
226,0,737.529236,174.943344,33.251392,744.062500,6.023888,-11.849410,737.923157,-33.356949,-55.605228,709.974365,-43.017216,-111.960541
227,0,737.538269,174.936661,33.250813,743.875671,6.099422,-11.934740,737.942749,-33.360104,-55.605846,709.964233,-43.018238,-111.999199
228,0,737.568359,174.941727,33.247898,744.115967,6.035363,-11.855944,737.998047,-33.369049,-55.584064,709.973877,-43.018204,-111.963638
229,0,737.568481,174.930969,33.228981,743.921204,6.097964,-11.947371,737.981628,-33.351921,-55.583099,710.005371,-43.011990,-111.943588
230,0,737.600342,174.932236,33.261505,744.116150,6.006507,-11.868476,737.964966,-33.373268,-55.627586,710.005798,-43.019730,-111.993698
231,0,737.604675,174.923050,33.263577,744.153870,6.012503,-11.863262,737.988159,-33.401173,-55.575882,710.025574,-43.001080,-111.956520
232,0,737.626221,174.912445,33.247746,743.945740,6.076914,-11.936554,737.987549,-33.398861,-55.571144,710.060547,-43.040035,-111.952591
233,0,737.651672,174.918411,33.285751,744.180176,5.992823,-11.833668,737.987976,-33.399918,-55.584995,710.060730,-43.020813,-111.926476
234,0,737.654175,174.905334,33.248184,744.208923,5.983711,-11.834032,737.992981,-33.418457,-55.610115,710.043274,-43.027618,-111.970078
235,0,737.688171,174.893555,33.223110,744.004761,6.047256,-11.956683,737.997864,-33.432949,-55.605919,710.032471,-43.034286,-111.988235
236,0,737.706604,174.884415,33.244568,744.021729,6.039673,-11.949457,737.991089,-33.426403,-55.624542,710.068787,-43.048687,-111.994156
237,0,737.707642,174.881241,33.252934,744.269592,5.942070,-11.864113,738.055847,-33.444324,-55.620277,710.067871,-43.038975,-112.001297
238,0,737.751343,174.878647,33.215034,744.040710,6.029614,-11.958775,738.091980,-33.430817,-55.650471,710.077820,-43.053658,-112.003601
239,0,737.769226,174.875427,33.203289,744.293396,5.946736,-11.881372,738.085938,-33.444210,-55.628246,710.078308,-43.049042,-112.010902
240,0,737.845337,174.882797,33.221226,744.063538,6.042606,-11.980853,738.096619,-33.451511,-55.641979,710.078918,-43.046371,-112.010002
241,0,737.864685,174.898331,33.223259,744.087402,6.044198,-11.961376,738.101196,-33.448284,-55.655785,710.079468,-43.043217,-112.011635
242,0,737.864746,174.899139,33.220947,744.323303,5.955646,-11.873010,738.093689,-33.449154,-55.634796,710.124512,-43.048489,-111.995827
243,0,737.891174,174.913681,33.226086,744.099304,6.034672,-11.934020,738.099060,-33.447041,-55.631004,710.122437,-43.025021,-111.976799
244,0,737.850952,174.896317,33.207577,744.086609,6.061146,-11.942706,738.092285,-33.445950,-55.636631,710.128113,-43.025513,-111.971664
245,0,737.858948,174.909454,33.218067,744.062622,6.052261,-11.952629,738.110779,-33.424129,-55.615017,710.119507,-43.021160,-111.975365
246,0,737.860901,174.911331,33.226276,744.083069,6.075905,-11.952127,738.129211,-33.416874,-55.613518,710.158936,-43.046410,-111.956757
247,0,737.855225,174.920395,33.236347,744.061157,6.072647,-11.957711,738.130005,-33.425213,-55.609444,710.137695,-43.029469,-111.995697
248,0,737.862488,174.928040,33.231102,744.056641,6.079309,-11.945316,738.123169,-33.406830,-55.620110,710.119019,-43.023308,-111.971321
249,0,737.828918,174.910263,33.221165,744.053894,6.089742,-11.952393,738.116394,-33.387024,-55.619797,710.115845,-42.998024,-111.985596
250,0,737.804077,174.932648,33.227108,744.053345,6.093400,-11.936062,738.080933,-33.394623,-55.634354,710.124756,-43.001362,-111.940269
251,0,737.742188,174.947556,33.244884,744.242981,6.025408,-11.843023,738.052429,-33.380833,-55.600075,710.128418,-43.002384,-111.959488
252,0,737.743408,174.943649,33.227337,743.968140,6.095749,-11.960696,738.040466,-33.384872,-55.611927,710.084656,-43.008305,-112.007233
253,0,737.729248,174.931366,33.214870,743.966248,6.094356,-11.957336,738.036255,-33.388393,-55.622955,710.059082,-43.022671,-111.989685
254,0,737.678833,174.916809,33.210854,743.977539,6.095416,-11.940285,738.035461,-33.376743,-55.588963,710.068970,-43.025856,-112.011063
255,0,737.654114,174.922745,33.221058,744.197754,6.009809,-11.852757,738.009827,-33.393814,-55.611691,710.077332,-43.024059,-111.958984
256,0,737.646179,174.908310,33.224464,743.926392,6.080924,-11.954573,737.994751,-33.408993,-55.605915,710.060181,-43.022381,-111.993774
257,0,737.609497,174.911102,33.218502,744.142029,5.992670,-11.869315,737.961243,-33.402939,-55.634113,710.070068,-43.025604,-112.015442
258,0,737.617004,174.906570,33.211578,743.896484,6.086913,-11.957546,737.975342,-33.412399,-55.634022,710.070190,-43.026043,-112.012955
259,0,737.578064,174.916351,33.214596,743.874512,6.063458,-11.949967,737.942749,-33.417480,-55.651390,710.059387,-43.038963,-112.017876
260,0,737.534668,174.895691,33.216610,743.856812,6.062751,-11.950149,737.947815,-33.422127,-55.647774,710.025696,-43.019779,-112.031769
261,0,737.562073,174.913513,33.221718,744.085205,5.990807,-11.883545,737.950134,-33.426987,-55.641033,710.025696,-43.019779,-112.031769
262,0,737.558533,174.903320,33.207077,743.867798,6.058449,-11.966809,737.954407,-33.428677,-55.629532,710.059387,-43.038963,-112.017876
263,0,737.564636,174.925568,33.232250,743.863342,6.059135,-11.977212,737.957275,-33.431438,-55.629898,710.059265,-43.038067,-112.022896
264,0,737.546021,174.897324,33.226170,743.866272,6.057017,-11.944527,737.960876,-33.428135,-55.635204,710.023193,-43.019470,-112.028046
265,0,737.579956,174.889313,33.237400,744.090698,5.963189,-11.864446,737.951477,-33.429222,-55.639503,710.022217,-43.018562,-112.031044
266,0,737.583496,174.894730,33.234943,743.860840,6.041276,-11.943030,737.958313,-33.443962,-55.637989,710.025696,-43.019779,-112.031769
267,0,737.632202,174.884003,33.209343,743.887207,6.035637,-11.957133,737.946716,-33.450092,-55.629833,710.056152,-43.036995,-112.013359
268,0,737.642273,174.888657,33.202827,743.907410,6.018839,-11.957107,737.954773,-33.442440,-55.633984,710.015381,-43.015713,-112.032028
269,0,737.652344,174.878906,33.214737,743.911743,6.011390,-11.948139,737.953125,-33.445026,-55.639408,710.057678,-43.031998,-112.025246
270,0,737.641479,174.864319,33.231441,744.186584,5.917326,-11.868867,737.991943,-33.464073,-55.626354,710.056580,-43.038872,-112.019775
271,0,737.689758,174.836716,33.184418,743.963440,6.013908,-11.971434,737.987671,-33.484001,-55.650036,710.060486,-43.052090,-112.011993
272,0,737.705627,174.834930,33.200176,743.989319,6.005227,-11.977551,738.011902,-33.472782,-55.635452,710.060852,-43.059673,-112.018692
273,0,737.715759,174.843643,33.209881,744.216431,5.915711,-11.871325,738.037598,-33.464027,-55.658886,710.061035,-43.057926,-112.020561
274,0,737.731445,174.835739,33.207043,744.007629,5.992019,-11.974471,738.054443,-33.468880,-55.648338,710.061646,-43.052685,-112.011391
275,0,737.752380,174.848145,33.197731,744.228516,5.917509,-11.884461,738.056335,-33.461987,-55.638073,710.079102,-43.037182,-112.008194
276,0,737.739868,174.857513,33.199947,744.247192,5.919886,-11.883577,738.061096,-33.464130,-55.641968,710.074280,-43.017410,-112.018867
277,0,737.773560,174.867508,33.206005,743.990479,5.999908,-11.969698,738.079346,-33.465153,-55.625324,710.083069,-43.035732,-112.024574
278,0,737.754578,174.882645,33.217758,744.221008,5.945300,-11.865719,738.067200,-33.448040,-55.634663,710.074341,-43.018230,-112.028580
279,0,737.715515,174.876572,33.191486,744.245850,5.943489,-11.904193,738.057312,-33.445259,-55.667553,710.079651,-43.015179,-112.038574
280,0,737.713318,174.890945,33.198254,744.015747,6.035857,-11.985856,738.044495,-33.439953,-55.667992,710.083862,-43.020027,-112.039429
281,0,737.681641,174.878418,33.188740,744.023926,6.042102,-12.007096,738.074463,-33.438122,-55.670979,710.081299,-43.020992,-112.036263
282,0,737.691284,174.894318,33.197701,744.010925,6.042421,-11.995850,738.074463,-33.438572,-55.656517,710.083374,-43.023201,-112.037971
283,0,737.678772,174.908386,33.203327,744.207275,5.980607,-11.876482,738.067627,-33.441704,-55.622082,710.073792,-43.021019,-112.029594
284,0,737.676208,174.917542,33.206383,743.994385,6.060385,-11.990849,738.063232,-33.437454,-55.653633,710.071777,-43.022099,-112.019577
285,0,737.640930,174.902756,33.204182,743.989319,6.057794,-11.990632,738.050293,-33.435871,-55.669529,710.081482,-43.019253,-112.038193
286,0,737.646667,174.890396,33.207664,743.953674,6.054031,-11.995897,738.063599,-33.431656,-55.658081,710.082214,-43.020340,-112.043114
287,0,737.626648,174.906952,33.207104,744.144653,5.964868,-11.913123,738.001709,-33.453270,-55.646778,710.077637,-43.018909,-112.038399
288,0,737.640076,174.892288,33.214325,743.929077,6.040345,-11.973709,737.992310,-33.454475,-55.674065,710.077942,-43.030201,-112.083771
289,0,737.627869,174.883591,33.203571,744.067810,6.003780,-11.833089,738.031189,-33.460342,-55.658329,710.083801,-43.019615,-112.041931
290,0,737.626038,174.883942,33.200771,744.192688,5.925722,-11.894327,737.994629,-33.459415,-55.692242,710.076721,-43.023140,-112.039787
291,0,737.598572,174.866791,33.207668,744.195618,5.908823,-11.875954,737.991821,-33.468140,-55.677536,710.074097,-43.017944,-112.035324
292,0,737.629272,174.854111,33.205376,743.959412,5.985847,-11.931496,737.991638,-33.483391,-55.669708,710.060364,-43.045132,-112.072197
293,0,737.625671,174.854721,33.218193,744.179504,5.905365,-11.883315,737.990112,-33.490993,-55.674133,710.052490,-43.037254,-112.070114
294,0,737.647766,174.861359,33.199474,743.991028,5.983077,-11.956447,737.997742,-33.504696,-55.690289,710.064514,-43.069874,-112.061722
295,0,737.620178,174.852798,33.206821,744.207214,5.889410,-11.873320,737.993591,-33.503342,-55.666584,710.069397,-43.037506,-112.058807
296,0,737.633850,174.845108,33.209229,744.235413,5.885069,-11.858531,737.992676,-33.501762,-55.672337,710.074524,-43.065613,-112.035210
297,0,737.656799,174.851974,33.202152,743.976807,5.970226,-11.959940,737.999023,-33.499847,-55.671406,710.073425,-43.064262,-112.046211
298,0,737.662903,174.833694,33.198982,744.004150,5.966481,-11.953206,737.994446,-33.518028,-55.691204,710.066040,-43.067177,-112.078529
299,0,737.723877,174.820694,33.193626,743.973145,5.951294,-11.972783,738.010986,-33.512749,-55.678249,710.067200,-43.067795,-112.078011
300,0,737.686646,174.830521,33.198963,743.988159,5.958786,-11.965097,737.980347,-33.512844,-55.679779,710.073425,-43.064262,-112.046211
301,0,737.661987,174.797409,33.209084,744.187622,5.875277,-11.877635,737.992859,-33.520405,-55.697510,710.069702,-43.069019,-112.076958
302,0,737.647339,174.803131,33.220451,743.957642,5.937978,-11.983280,737.998291,-33.528969,-55.687717,710.067200,-43.067795,-112.078011
303,0,737.656128,174.805450,33.217667,743.939209,5.926913,-11.989207,737.978516,-33.556755,-55.688549,710.067200,-43.067795,-112.078011
304,0,737.638855,174.808624,33.215450,743.942871,5.920440,-11.975972,737.987000,-33.555626,-55.685757,710.065002,-43.065159,-112.078644
305,0,737.613220,174.808945,33.235161,744.140564,5.848745,-11.910093,737.982727,-33.562122,-55.678879,710.037598,-43.072796,-112.097107
306,0,737.604248,174.783707,33.215958,743.918274,5.911831,-11.985675,737.982300,-33.569733,-55.681149,710.040527,-43.074360,-112.108475
307,0,737.602966,174.786499,33.227531,743.923035,5.911775,-11.977842,737.976562,-33.556641,-55.689125,710.049988,-43.105610,-112.101509
308,0,737.588196,174.779053,33.229332,743.902161,5.926321,-11.963828,737.984253,-33.558208,-55.685123,710.059021,-43.102833,-112.111450
309,0,737.581116,174.776062,33.190933,743.892761,5.919247,-11.979398,737.985107,-33.558441,-55.680092,710.048584,-43.075218,-112.122643
310,0,737.574219,174.789795,33.213413,744.113281,5.843711,-11.903162,737.983215,-33.553253,-55.693573,710.054016,-43.102455,-112.109390
311,0,737.594360,174.797470,33.214531,743.904724,5.925935,-11.992948,737.983765,-33.551067,-55.701351,710.054199,-43.100658,-112.111465
312,0,737.599182,174.794235,33.216572,743.911682,5.926713,-12.000664,737.980713,-33.553226,-55.704514,710.086060,-43.097870,-112.094215
313,0,737.594666,174.801620,33.240498,744.152710,5.844222,-11.892144,737.989807,-33.550125,-55.701893,710.080872,-43.071430,-112.102432
314,0,737.591003,174.803253,33.226013,744.164429,5.852374,-11.898319,738.027771,-33.560303,-55.689766,710.090332,-43.064659,-112.114281
315,0,737.601257,174.808792,33.215309,743.928650,5.931742,-12.007511,738.035400,-33.542713,-55.690205,710.080078,-43.061874,-112.092316
316,0,737.615845,174.815231,33.224716,743.933899,5.932751,-12.004095,738.022461,-33.542389,-55.696968,710.083557,-43.067333,-112.109001
317,0,737.634888,174.811371,33.212254,743.944641,5.935145,-12.006672,738.027771,-33.551807,-55.693462,710.081970,-43.072029,-112.101875
318,0,737.608398,174.814514,33.200344,743.910156,5.933486,-11.995076,738.036316,-33.541759,-55.689026,710.076050,-43.068523,-112.090752
319,0,737.630310,174.819092,33.207367,743.917358,5.938831,-12.016074,738.002502,-33.553516,-55.708321,710.072388,-43.068485,-112.083214
320,0,737.619202,174.817017,33.238655,743.908813,5.932007,-11.984876,738.025391,-33.562462,-55.697517,710.050171,-43.080101,-112.103416
321,0,737.605347,174.812653,33.241138,743.916870,5.932592,-11.980762,737.994202,-33.562744,-55.683693,710.076050,-43.068974,-112.088448
322,0,737.598389,174.797791,33.228069,743.916931,5.930656,-11.966660,737.970276,-33.553921,-55.681877,710.077454,-43.068260,-112.087456
323,0,737.587280,174.792526,33.235115,744.056580,5.917924,-11.810584,737.977295,-33.561954,-55.676682,710.073669,-43.068195,-112.087250
324,0,737.613525,174.811401,33.232597,743.946716,5.935239,-11.944233,737.993774,-33.568439,-55.696857,710.044678,-43.074348,-112.103241
325,0,737.602478,174.811554,33.213058,743.930725,5.929999,-11.958925,737.985962,-33.564438,-55.676193,710.076050,-43.068523,-112.090752
326,0,737.620850,174.810699,33.198833,743.933044,5.940416,-11.968982,738.019653,-33.547955,-55.674622,710.077637,-43.064625,-112.097565
327,0,737.610352,174.810471,33.218468,743.945801,5.931005,-11.963366,738.014404,-33.546867,-55.681137,710.076294,-43.067204,-112.090286
328,0,737.609131,174.809586,33.227077,744.336975,5.809062,-11.716240,738.022217,-33.537537,-55.683174,710.082764,-43.066238,-112.093559
329,0,737.633789,174.821594,33.213406,743.944275,5.935650,-11.993865,738.029968,-33.542606,-55.688911,710.076050,-43.069424,-112.086166
330,0,737.624756,174.819443,33.208790,743.945923,5.942114,-11.974117,738.007629,-33.533810,-55.689274,710.078491,-43.070198,-112.087379
331,0,737.631287,174.820648,33.206123,743.939636,5.940934,-11.960681,738.007263,-33.546986,-55.672371,710.077454,-43.067810,-112.089752
332,0,737.617188,174.808182,33.223888,743.953186,5.924349,-11.945990,737.969727,-33.551601,-55.680981,710.079590,-43.069908,-112.091415
333,0,737.588928,174.799988,33.225243,744.172058,5.836950,-11.852446,737.986694,-33.555859,-55.677376,710.073669,-43.068195,-112.087250
334,0,737.582275,174.794327,33.205132,744.053589,5.904497,-11.807932,737.982483,-33.565506,-55.678150,710.080444,-43.065918,-112.090034
335,0,737.598938,174.799484,33.211349,743.929626,5.924607,-11.952832,737.983582,-33.564400,-55.676918,710.044373,-43.073883,-112.105659
336,0,737.568726,174.770950,33.208805,744.170105,5.831043,-11.856260,737.979797,-33.558109,-55.682117,710.087036,-43.091187,-112.083138
337,0,737.557434,174.758392,33.194359,744.024475,5.891590,-11.821019,737.977356,-33.562172,-55.680286,710.084839,-43.096771,-112.080864
338,0,737.571655,174.765594,33.214996,743.920288,5.899272,-11.965617,737.993958,-33.567871,-55.679855,710.084839,-43.096771,-112.080864
339,0,737.570374,174.771988,33.193466,743.919312,5.893473,-11.965681,737.991455,-33.566257,-55.685421,710.091248,-43.094387,-112.090057
340,0,737.589233,174.782272,33.196697,743.941467,5.912640,-11.954872,738.002441,-33.570202,-55.696762,710.049744,-43.100681,-112.095085
341,0,737.576050,174.772064,33.186401,744.332153,5.760289,-11.705879,737.982239,-33.560085,-55.691666,710.082458,-43.096008,-112.079643
342,0,737.571411,174.774277,33.189198,744.331116,5.779285,-11.723732,737.970703,-33.559444,-55.690590,710.077393,-43.099995,-112.110573
343,0,737.602234,174.771698,33.181126,743.937317,5.914634,-11.953341,738.009521,-33.579189,-55.701759,710.078491,-43.070198,-112.087379
344,0,737.603455,174.787354,33.213924,743.932007,5.921442,-11.956880,737.987732,-33.567181,-55.699081,710.077209,-43.069588,-112.087921
345,0,737.582397,174.793228,33.206738,744.173035,5.832262,-11.852599,738.020813,-33.569145,-55.693615,710.078003,-43.064709,-112.091125
346,0,737.603699,174.803757,33.216057,743.938965,5.914508,-11.949130,738.015198,-33.569008,-55.695606,710.074829,-43.068359,-112.088997
347,0,737.589294,174.798889,33.201191,743.939026,5.926520,-11.951395,738.009033,-33.566650,-55.675938,710.077209,-43.070038,-112.085632
348,0,737.620483,174.809402,33.195187,743.922180,5.918258,-11.961315,738.018188,-33.570198,-55.692448,710.077209,-43.069588,-112.087921
349,0,737.618408,174.811691,33.192455,743.940186,5.933593,-11.978477,738.035034,-33.556137,-55.703041,710.073669,-43.068649,-112.084953
350,0,737.621338,174.815567,33.213451,744.166870,5.857862,-11.892733,738.026672,-33.556133,-55.705910,710.073669,-43.068649,-112.084953
351,0,737.637207,174.819885,33.198399,743.937988,5.936659,-12.017761,738.058472,-33.564198,-55.710041,710.074829,-43.068810,-112.086708
352,0,737.637695,174.816406,33.216702,743.960510,5.917938,-11.988476,738.043335,-33.581600,-55.719795,710.080933,-43.070576,-112.107315
353,0,737.618652,174.792404,33.186172,743.926941,5.928903,-12.004594,738.012390,-33.555290,-55.715248,710.089172,-43.064487,-112.112389
354,0,737.618469,174.790283,33.183228,743.951782,5.919012,-12.033294,738.047180,-33.573231,-55.707405,710.086121,-43.065342,-112.111290
355,0,737.623840,174.797653,33.177624,744.147339,5.842340,-11.918212,738.035156,-33.583492,-55.718811,710.089233,-43.066349,-112.161415
356,0,737.616211,174.807480,33.236355,744.154785,5.840967,-11.918578,738.021545,-33.565742,-55.715092,710.089172,-43.060410,-112.110611
357,0,737.641418,174.799942,33.187672,743.951843,5.902651,-12.018920,738.030762,-33.569725,-55.705547,710.094116,-43.071209,-112.119743
358,0,737.629150,174.796341,33.153511,743.959717,5.927333,-12.012062,738.041443,-33.579369,-55.720184,710.104553,-43.090298,-112.126564
359,0,737.622192,174.772766,33.171612,744.176453,5.830369,-11.925597,738.029480,-33.580872,-55.725060,710.106873,-43.088085,-112.131042
360,0,737.621216,174.779572,33.149773,744.192871,5.824397,-11.927223,738.045654,-33.587212,-55.718155,710.111755,-43.088577,-112.130501
361,0,737.656921,174.771942,33.157551,743.962585,5.901684,-12.022463,738.032410,-33.593025,-55.724136,710.098328,-43.093933,-112.158600
362,0,737.658325,174.776794,33.167332,743.944946,5.898180,-12.030448,738.061523,-33.584270,-55.737347,710.100891,-43.092861,-112.125740
363,0,737.646912,174.769333,33.152237,744.161377,5.832233,-11.937466,738.052612,-33.584156,-55.709244,710.107117,-43.089645,-112.127274
364,0,737.663452,174.775864,33.181358,743.956177,5.888381,-12.025157,738.050903,-33.585907,-55.715012,710.105591,-43.090897,-112.125916
365,0,737.636292,174.767761,33.164848,744.175476,5.818623,-11.940181,738.035461,-33.601929,-55.715248,710.094421,-43.098148,-112.155594
366,0,737.663147,174.762756,33.166809,743.935486,5.893026,-12.013881,738.058105,-33.609238,-55.734077,710.092468,-43.095482,-112.103539
367,0,737.655029,174.774994,33.178146,743.938171,5.895034,-12.014281,738.038086,-33.609005,-55.711830,710.101746,-43.095184,-112.123207
368,0,737.642944,174.763840,33.165207,744.163574,5.813593,-11.912923,738.033020,-33.594810,-55.745148,710.098328,-43.093933,-112.158600
369,0,737.675659,174.770004,33.165676,743.941650,5.887976,-12.022692,738.044189,-33.603619,-55.733334,710.069092,-43.095406,-112.182076
370,0,737.653015,174.770477,33.135162,743.954224,5.894208,-12.021035,738.030334,-33.591259,-55.734268,710.108032,-43.091225,-112.129616
371,0,737.657776,174.782089,33.161228,743.932129,5.893544,-12.011967,738.056885,-33.603596,-55.732315,710.093811,-43.095654,-112.105400
372,0,737.656982,174.768173,33.148090,743.952026,5.893758,-12.007535,738.067322,-33.599476,-55.738838,710.101929,-43.093861,-112.122658
373,0,737.670349,174.767609,33.165028,743.941345,5.896660,-12.042145,738.064575,-33.604412,-55.740704,710.094299,-43.098568,-112.153343
374,0,737.649841,174.765472,33.138172,744.176514,5.823211,-11.958808,738.052917,-33.609592,-55.745838,710.099548,-43.094093,-112.160400
375,0,737.665833,174.761871,33.144100,743.961060,5.899732,-12.030747,738.062988,-33.605782,-55.739918,710.100830,-43.090515,-112.162422
376,0,737.674622,174.757660,33.163280,743.963806,5.886757,-12.016520,738.082520,-33.596516,-55.749294,710.105652,-43.090511,-112.128372
377,0,737.672668,174.757263,33.166176,744.206421,5.796744,-11.935640,738.067078,-33.604343,-55.756752,710.104309,-43.094582,-112.123894
378,0,737.667480,174.753586,33.172901,744.237610,5.783367,-11.957458,738.091614,-33.625820,-55.750980,710.097046,-43.097183,-112.158730
379,0,737.671570,174.745361,33.143654,744.023743,5.861669,-12.031137,738.132446,-33.607838,-55.756805,710.099548,-43.095566,-112.163139
380,0,737.659058,174.742493,33.144783,744.255554,5.780091,-11.941311,738.074585,-33.620544,-55.752140,710.103699,-43.089600,-112.131897
381,0,737.666199,174.740570,33.135986,743.999695,5.849982,-12.039769,738.119568,-33.609371,-55.758766,710.099792,-43.093857,-112.164970
382,0,737.646362,174.732056,33.142841,744.238098,5.780567,-11.953807,738.109619,-33.622894,-55.756634,710.098633,-43.093697,-112.163193
383,0,737.644409,174.734848,33.126053,744.012451,5.867806,-12.030329,738.069763,-33.631104,-55.775528,710.100586,-43.088100,-112.181328
384,0,737.637512,174.735123,33.136856,744.222717,5.777232,-11.949510,738.090759,-33.619457,-55.751198,710.102478,-43.082916,-112.131294
385,0,737.648132,174.735413,33.126827,744.017090,5.860246,-12.022089,738.062805,-33.629780,-55.760147,710.106079,-43.090313,-112.133110
386,0,737.647217,174.736359,33.137836,743.956909,5.875634,-12.040365,738.065369,-33.632793,-55.779392,710.069824,-43.099529,-112.181526
387,0,737.656921,174.745392,33.130768,743.982849,5.856619,-12.045810,738.048950,-33.634441,-55.786835,710.068848,-43.088860,-112.183632
388,0,737.643677,174.742188,33.134781,744.177429,5.792267,-11.934394,738.066101,-33.635880,-55.768723,710.083069,-43.089916,-112.158859
389,0,737.668884,174.754547,33.125931,743.949158,5.871445,-12.010198,738.053162,-33.631084,-55.759785,710.109741,-43.087341,-112.136421
390,0,737.679688,174.762711,33.148605,743.977173,5.879266,-12.021177,738.053345,-33.627914,-55.756187,710.072754,-43.094986,-112.146439
391,0,737.699097,174.756989,33.156361,744.010376,5.857284,-12.034790,738.074036,-33.618752,-55.764088,710.098633,-43.093697,-112.163193
392,0,737.701538,174.751328,33.159489,744.232056,5.775177,-11.987424,738.120544,-33.606884,-55.761135,710.105225,-43.096680,-112.176086
393,0,737.708679,174.751419,33.178253,744.040771,5.871853,-12.007088,738.145203,-33.619381,-55.741882,710.111755,-43.088245,-112.132904
394,0,737.687866,174.728302,33.181000,744.286926,5.791410,-11.887435,738.126770,-33.617126,-55.742607,710.107056,-43.087166,-112.127991
395,0,737.743347,174.723953,33.161430,744.053101,5.857617,-12.001269,738.140930,-33.631786,-55.752224,710.103333,-43.090130,-112.124725
396,0,737.739929,174.705338,33.172035,744.274841,5.772401,-11.929427,738.136597,-33.620564,-55.743721,710.110962,-43.081009,-112.139404
397,0,737.780945,174.722992,33.158279,744.285339,5.762961,-11.955837,738.164795,-33.636333,-55.754520,710.105042,-43.079456,-112.135139
398,0,737.759216,174.709076,33.139130,744.083374,5.839564,-12.054421,738.171509,-33.653534,-55.752510,710.073853,-43.095177,-112.148331
399,0,737.785095,174.706375,33.134888,744.076965,5.831583,-12.042607,738.175293,-33.656807,-55.769051,710.145325,-43.135857,-112.140701
400,0,737.774292,174.700333,33.146461,744.071350,5.811318,-12.043334,738.172241,-33.652100,-55.780163,710.076355,-43.120777,-112.171608
401,0,737.753052,174.677216,33.166679,744.087646,5.803867,-12.017739,738.180054,-33.663673,-55.800583,710.072876,-43.119408,-112.170807
402,0,737.744690,174.683655,33.166630,744.323975,5.738241,-11.935373,738.163879,-33.687969,-55.774826,710.072754,-43.119003,-112.173164
403,0,737.741028,174.663925,33.153294,744.311768,5.707026,-11.924083,738.159668,-33.690525,-55.769894,710.072754,-43.119003,-112.173164
404,0,737.742676,174.667709,33.154278,744.066528,5.776423,-12.029539,738.133057,-33.715218,-55.767872,710.077942,-43.121708,-112.183990
405,0,737.729004,174.666138,33.163948,744.290222,5.698594,-11.942203,738.117188,-33.710735,-55.779064,710.072876,-43.119408,-112.170807
406,0,737.740112,174.657639,33.154099,744.282410,5.687002,-11.920589,738.125427,-33.715767,-55.773777,710.072754,-43.119003,-112.173164
407,0,737.748047,174.657715,33.144024,744.079529,5.778085,-11.998145,738.128418,-33.708794,-55.774261,710.059753,-43.135593,-112.181976
408,0,737.731689,174.650833,33.133060,744.083374,5.765544,-12.015548,738.125061,-33.711414,-55.773407,710.079163,-43.116261,-112.185020
409,0,737.725281,174.664963,33.165218,744.302246,5.691503,-11.920120,738.127136,-33.710304,-55.781685,710.084290,-43.118195,-112.201111
410,0,737.731506,174.660934,33.156052,744.299927,5.690892,-11.920430,738.148438,-33.695038,-55.776878,710.083191,-43.118000,-112.199158
411,0,737.742615,174.674423,33.162979,744.105774,5.784301,-12.013891,738.156494,-33.695755,-55.773201,710.150391,-43.134243,-112.151077
412,0,737.735413,174.679138,33.168999,744.318787,5.740272,-11.922720,738.175659,-33.679783,-55.767551,710.070312,-43.117809,-112.174210
413,0,737.767395,174.696777,33.163589,744.098938,5.800375,-11.996134,738.172607,-33.679035,-55.772423,710.073914,-43.119595,-112.172638
414,0,737.761780,174.697617,33.143864,744.311584,5.716974,-11.920890,738.175293,-33.666035,-55.771610,710.071472,-43.120445,-112.169464
415,0,737.761230,174.694077,33.149757,744.318848,5.743541,-11.944024,738.172241,-33.655190,-55.768307,710.115051,-43.107635,-112.129486
416,0,737.773865,174.711227,33.152424,744.091370,5.825470,-12.016401,738.173889,-33.651917,-55.753441,710.113586,-43.083977,-112.142204
417,0,737.753784,174.731339,33.176075,744.307312,5.764390,-11.934573,738.148010,-33.638451,-55.764633,710.106201,-43.087429,-112.172409
418,0,737.743469,174.696701,33.144871,744.301086,5.767043,-11.924318,738.162048,-33.648701,-55.776962,710.072266,-43.086197,-112.186996
419,0,737.721313,174.717316,33.165977,744.251465,5.748549,-11.956406,738.126831,-33.646084,-55.776848,710.072266,-43.096603,-112.183151
420,0,737.717773,174.695129,33.171146,744.272034,5.752374,-11.942471,738.140564,-33.660168,-55.784229,710.063965,-43.090984,-112.180695
421,0,737.744080,174.687943,33.172470,744.291565,5.730199,-11.917500,738.156860,-33.658730,-55.746899,710.068542,-43.088032,-112.188400
422,0,737.727234,174.690170,33.158073,744.294189,5.725535,-11.900065,738.142517,-33.669186,-55.763893,710.103760,-43.080021,-112.174461
423,0,737.729309,174.688995,33.177540,744.266052,5.712245,-11.908328,738.120239,-33.679241,-55.761929,710.109680,-43.088703,-112.173248
424,0,737.742432,174.686844,33.162617,744.031555,5.803538,-12.001464,738.120483,-33.677376,-55.763901,710.081787,-43.082993,-112.160576
425,0,737.718384,174.701462,33.177670,744.284058,5.742102,-11.921954,738.163940,-33.663815,-55.765476,710.073120,-43.087639,-112.189362
426,0,737.733459,174.688263,33.159813,744.080444,5.839390,-12.026140,738.164185,-33.658009,-55.776661,710.073486,-43.084797,-112.190651
427,0,737.761292,174.704712,33.154896,744.080627,5.815407,-12.013480,738.170166,-33.656288,-55.775101,710.069946,-43.089500,-112.183052
428,0,737.745361,174.698151,33.151531,744.316833,5.747961,-11.927616,738.169189,-33.651886,-55.782207,710.072021,-43.099899,-112.185242
429,0,737.782776,174.704788,33.149391,744.084839,5.827487,-12.011870,738.135193,-33.661152,-55.795738,710.066162,-43.091358,-112.184372
430,0,737.761963,174.711227,33.135880,744.327820,5.746047,-11.925529,738.166870,-33.661419,-55.778881,710.067322,-43.091965,-112.183846
431,0,737.762451,174.688049,33.140747,744.066223,5.822242,-12.031648,738.180786,-33.661762,-55.774292,710.070190,-43.098270,-112.181046
432,0,737.748047,174.681610,33.159733,744.314758,5.730002,-11.926100,738.178711,-33.666054,-55.771309,710.106323,-43.113026,-112.167122
433,0,737.758545,174.690567,33.143681,744.112366,5.797529,-12.007263,738.169983,-33.660446,-55.784584,710.071350,-43.120029,-112.171822
434,0,737.763733,174.690308,33.154472,744.329590,5.728055,-11.908007,738.165161,-33.690746,-55.773174,710.079224,-43.115799,-112.138947
435,0,737.773193,174.687866,33.153065,744.081604,5.797996,-12.006672,738.174805,-33.679764,-55.771469,710.115295,-43.141552,-112.157181
436,0,737.771484,174.688034,33.154766,744.084778,5.800433,-12.007256,738.157654,-33.689766,-55.773064,710.117310,-43.141941,-112.160896
437,0,737.745178,174.668823,33.152916,744.075256,5.801765,-12.027556,738.143799,-33.701031,-55.776703,710.073059,-43.117783,-112.172661
438,0,737.777710,174.688675,33.145763,744.085571,5.796772,-12.053192,738.175110,-33.687935,-55.779438,710.146545,-43.136028,-112.142487
439,0,737.781250,174.689011,33.159790,744.335266,5.714710,-11.935914,738.207825,-33.680668,-55.777157,710.105835,-43.109760,-112.165268
440,0,737.782227,174.679520,33.133289,744.124390,5.795143,-12.037383,738.185852,-33.678871,-55.778496,710.146545,-43.136028,-112.142487
441,0,737.798462,174.688339,33.146557,744.134033,5.795483,-12.028607,738.163391,-33.670101,-55.784813,710.114014,-43.140865,-112.157730
442,0,737.809265,174.689651,33.156242,744.138184,5.792441,-12.024681,738.218079,-33.697723,-55.795811,710.150269,-43.137474,-112.143288
443,0,737.806946,174.696396,33.150326,744.131653,5.792487,-12.035344,738.205444,-33.684132,-55.785496,710.073486,-43.120468,-112.175438
444,0,737.825623,174.700211,33.142082,744.134033,5.785916,-12.031743,738.188293,-33.686092,-55.773350,710.146545,-43.136028,-112.142487
445,0,737.842285,174.695847,33.128262,744.109070,5.790675,-12.046006,738.200623,-33.680832,-55.790745,710.114014,-43.140865,-112.157730
446,0,737.836792,174.700256,33.139118,744.138367,5.793537,-12.030910,738.211548,-33.684261,-55.812195,710.103333,-43.116932,-112.154625
447,0,737.848511,174.702057,33.135983,744.372192,5.719353,-11.956812,738.201111,-33.683056,-55.783421,710.144104,-43.135216,-112.141190
448,0,737.827942,174.700668,33.120174,744.150024,5.798192,-12.030747,738.200012,-33.685440,-55.811916,710.116272,-43.143578,-112.157036
449,0,737.804321,174.701996,33.135971,744.119751,5.797894,-12.037229,738.198120,-33.684582,-55.781982,710.116028,-43.141266,-112.161461
450,0,737.815430,174.705704,33.153111,744.361206,5.723764,-11.946957,738.206421,-33.681004,-55.781555,710.150146,-43.137005,-112.145584
451,0,737.815918,174.696960,33.142845,744.361633,5.716304,-11.948246,738.209229,-33.680710,-55.789909,710.117065,-43.112583,-112.188995
452,0,737.810547,174.697235,33.119717,744.332703,5.724836,-11.946841,738.200745,-33.666332,-55.793640,710.106812,-43.083408,-112.171188
453,0,737.797546,174.696411,33.145538,744.111023,5.790898,-12.042421,738.212891,-33.668190,-55.813286,710.066467,-43.088120,-112.182266
454,0,737.794617,174.693253,33.160633,744.354858,5.717012,-11.952125,738.203613,-33.673737,-55.795811,710.141113,-43.110897,-112.151230
455,0,737.804016,174.697021,33.149715,744.116882,5.788819,-12.030768,738.173157,-33.667839,-55.781891,710.096130,-43.086529,-112.163185
456,0,737.782898,174.692703,33.128452,744.109375,5.793102,-12.042453,738.188171,-33.668583,-55.800415,710.093872,-43.085384,-112.164108
457,0,737.794434,174.693375,33.143982,744.337341,5.729532,-11.945516,738.196594,-33.668262,-55.781284,710.097229,-43.087093,-112.162720
458,0,737.783936,174.691864,33.114437,744.125122,5.791116,-12.037294,738.214294,-33.684113,-55.805592,710.122559,-43.140789,-112.168877
459,0,737.822449,174.694565,33.129303,744.128174,5.790952,-12.026890,738.218689,-33.684956,-55.804710,710.152893,-43.134968,-112.152443
460,0,737.847717,174.709045,33.131672,744.132996,5.785938,-12.038426,738.218933,-33.688873,-55.819275,710.084412,-43.118954,-112.196091
461,0,737.843567,174.704315,33.144142,744.153809,5.763523,-12.033729,738.224548,-33.703106,-55.812202,710.085205,-43.120289,-112.203026
462,0,737.806885,174.699203,33.137722,744.146423,5.761272,-12.018003,738.239685,-33.703846,-55.817726,710.086670,-43.115566,-112.199020
463,0,737.808533,174.675720,33.116230,744.160339,5.766541,-12.026988,738.208313,-33.715530,-55.802158,710.086731,-43.114983,-112.205284
464,0,737.812073,174.664490,33.139153,744.134521,5.758375,-12.028026,738.239136,-33.739056,-55.795017,710.092712,-43.117371,-112.219467
465,0,737.827698,174.667435,33.133114,744.126648,5.755931,-12.028615,738.224304,-33.724686,-55.808361,710.127991,-43.142696,-112.184906
466,0,737.803955,174.677750,33.132915,744.120667,5.755754,-12.040952,738.226135,-33.720341,-55.804714,710.088135,-43.119835,-112.214134
467,0,737.792297,174.665588,33.123211,744.128113,5.751308,-12.022895,738.189880,-33.719761,-55.796318,710.082642,-43.119175,-112.198509
468,0,737.823975,174.662537,33.146549,744.345947,5.670503,-11.951966,738.196777,-33.715805,-55.812233,710.089233,-43.120029,-112.216057
469,0,737.812805,174.669769,33.147255,744.372131,5.682311,-11.947817,738.221619,-33.727455,-55.798885,710.136108,-43.140285,-112.200813
470,0,737.819153,174.676498,33.128147,744.370422,5.680323,-11.940847,738.246521,-33.736191,-55.794373,710.134521,-43.139198,-112.204018
471,0,737.837402,174.683823,33.131680,744.143494,5.749202,-12.015651,738.203552,-33.708313,-55.810650,710.123047,-43.118763,-112.200829
472,0,737.824707,174.681854,33.114697,744.361511,5.679700,-11.945971,738.216614,-33.732178,-55.794281,710.087891,-43.115913,-112.202179
473,0,737.837646,174.684021,33.116909,744.137390,5.759163,-12.042453,738.205139,-33.715553,-55.802147,710.091675,-43.117176,-112.217537
474,0,737.867859,174.677826,33.113644,744.146973,5.766960,-12.042648,738.244568,-33.726330,-55.815540,710.131409,-43.138584,-112.198174
475,0,737.885925,174.663635,33.113388,744.129822,5.763742,-12.037798,738.244812,-33.737675,-55.803013,710.170593,-43.131279,-112.192223
476,0,737.870361,174.674484,33.121387,744.142029,5.775121,-12.044580,738.247681,-33.730957,-55.817299,710.127258,-43.112991,-112.205559
477,0,737.887390,174.663864,33.113464,744.145996,5.772796,-12.041305,738.254639,-33.732658,-55.811550,710.165344,-43.135399,-112.187477
478,0,737.865051,174.639755,33.104111,744.159302,5.759828,-12.043985,738.248962,-33.731529,-55.818565,710.171448,-43.133266,-112.192146
479,0,737.885559,174.682480,33.127945,744.180908,5.774783,-12.036982,738.266602,-33.718719,-55.821579,710.129639,-43.139229,-112.199409
480,0,737.877869,174.655319,33.112614,744.157532,5.766323,-12.048866,738.241394,-33.728935,-55.820656,710.162598,-43.138119,-112.188362
481,0,737.876221,174.655472,33.119789,744.412415,5.687273,-11.984797,738.241333,-33.730488,-55.842781,710.167786,-43.136185,-112.188797
482,0,737.867615,174.673645,33.116276,744.175110,5.765650,-12.058756,738.239624,-33.725964,-55.860157,710.151184,-43.148277,-112.215919
483,0,737.848816,174.657928,33.096386,744.169983,5.766263,-12.053411,738.236267,-33.722366,-55.837986,710.147522,-43.153095,-112.210197
484,0,737.855286,174.665695,33.122353,744.370605,5.690148,-11.969583,738.229431,-33.728043,-55.830265,710.096130,-43.129311,-112.219948
485,0,737.815369,174.659744,33.085823,744.140991,5.758098,-12.049899,738.249878,-33.731419,-55.833656,710.141602,-43.153221,-112.207466
486,0,737.828430,174.678879,33.107567,744.161987,5.764194,-12.060780,738.229431,-33.729149,-55.819996,710.145020,-43.154282,-112.210724
487,0,737.811584,174.679886,33.092224,744.123840,5.764193,-12.063137,738.248779,-33.729374,-55.829842,710.143250,-43.154949,-112.211922
488,0,737.804077,174.675201,33.105587,744.128479,5.762114,-12.046765,738.241638,-33.733650,-55.816128,710.130371,-43.143364,-112.201073
489,0,737.791931,174.691238,33.112514,744.363281,5.696045,-11.956409,738.226379,-33.720856,-55.814537,710.085815,-43.119076,-112.212807
490,0,737.827271,174.696487,33.129974,744.116272,5.782316,-12.067664,738.222839,-33.701466,-55.816265,710.135803,-43.139843,-112.203392
491,0,737.843933,174.708481,33.114143,744.109802,5.777453,-12.058666,738.238831,-33.720947,-55.813828,710.137085,-43.136253,-112.205421
492,0,737.836853,174.697327,33.120144,744.130554,5.774434,-12.048341,738.236023,-33.716751,-55.828323,710.128235,-43.111111,-112.205727
493,0,737.829102,174.700729,33.123951,744.370422,5.695418,-11.962942,738.197754,-33.705528,-55.812431,710.140320,-43.139084,-112.206673
494,0,737.831177,174.695572,33.115974,744.125671,5.773458,-12.045928,738.241394,-33.724831,-55.819805,710.130371,-43.138996,-112.203934
495,0,737.870361,174.689560,33.118073,744.135498,5.768797,-12.036276,738.239685,-33.725346,-55.818008,710.087463,-43.121212,-112.199875
496,0,737.852051,174.682892,33.145687,744.378479,5.709573,-11.956446,738.247314,-33.724476,-55.811905,710.160461,-43.130157,-112.137939
497,0,737.864258,174.701035,33.131599,744.139832,5.775189,-12.034114,738.245911,-33.726532,-55.811390,710.126709,-43.142033,-112.185509
498,0,737.832642,174.698029,33.109138,744.147217,5.775820,-12.044596,738.228699,-33.707935,-55.810432,710.131775,-43.144020,-112.200439
499,0,737.866211,174.706238,33.128757,744.138733,5.783767,-12.052193,738.247742,-33.703850,-55.819962,710.127136,-43.140671,-112.185036
500,0,737.829895,174.701202,33.140434,744.351746,5.705430,-11.948647,738.239258,-33.697952,-55.826485,710.127136,-43.140671,-112.185036
501,0,737.831909,174.707245,33.114590,744.132385,5.776167,-12.049668,738.242065,-33.692539,-55.832882,710.083191,-43.118000,-112.199158
502,0,737.839050,174.710953,33.106365,744.136536,5.777135,-12.046083,738.222168,-33.711563,-55.827229,710.132141,-43.138348,-112.202698
503,0,737.814270,174.688934,33.131802,744.124878,5.774606,-12.040106,738.218567,-33.712143,-55.823727,710.135681,-43.135616,-112.206055
504,0,737.786987,174.666733,33.143906,744.364563,5.664192,-11.954333,738.228271,-33.719963,-55.813705,710.142090,-43.167103,-112.194595
505,0,737.759338,174.633881,33.151947,744.348999,5.653584,-11.952587,738.238708,-33.759621,-55.810509,710.134094,-43.197399,-112.198883
506,0,737.757751,174.593842,33.176048,744.081970,5.680802,-12.042483,738.232971,-33.785656,-55.838379,710.144043,-43.196453,-112.219208
507,0,737.737915,174.539764,33.225296,744.331909,5.521810,-11.901039,738.203491,-33.832542,-55.858334,710.156250,-43.220436,-112.261192
508,0,737.819214,174.473129,33.278587,744.310242,5.419829,-11.803956,738.141235,-33.904133,-55.827045,710.148499,-43.222591,-112.198936
509,0,738.051575,174.413589,33.439026,744.112183,5.331725,-11.679048,738.058777,-34.020439,-55.689430,710.057251,-43.205605,-112.100380
510,0,738.419128,174.336945,33.631737,744.268555,5.151759,-11.427277,737.999390,-34.116951,-55.472965,710.052979,-43.180840,-111.922646
511,0,738.975952,174.322632,33.948963,744.543518,4.981866,-11.122063,738.134644,-34.157776,-55.242699,710.071899,-43.203613,-111.609085
512,0,739.535583,174.323090,34.426022,745.080078,4.734183,-10.479616,738.401123,-34.170116,-54.858036,710.116211,-43.173748,-111.075516
513,0,740.047424,174.325684,35.072868,745.177246,4.706062,-9.849865,738.674622,-34.212654,-54.268360,710.262268,-43.122524,-110.420822
514,0,740.383179,174.346283,35.680157,745.429993,4.554593,-8.808751,738.818726,-34.288151,-53.430317,710.337097,-43.156178,-109.524918
515,0,740.609802,174.347412,36.314095,745.692688,4.297480,-7.372256,738.816589,-34.452850,-52.246632,710.477234,-43.227539,-108.309464
516,0,740.714661,174.409332,37.090679,745.618469,4.225987,-6.149526,738.937561,-34.730328,-50.714035,710.738770,-43.537033,-106.900406
517,0,740.761108,174.532043,37.961479,745.888855,3.957757,-4.211018,739.117371,-35.064030,-48.856270,711.248047,-44.127056,-105.092522
518,0,740.754028,174.667709,38.746067,745.827454,3.800894,-2.231562,739.424316,-35.464329,-46.655319,712.078308,-45.024181,-102.964722
519,0,740.616394,174.828217,39.583668,745.845276,3.717974,-0.066173,739.897339,-35.953079,-44.152824,712.922302,-46.121220,-100.607407
520,0,740.526306,175.034073,40.474937,745.908081,3.696172,2.184011,740.347961,-36.517532,-41.390560,713.841980,-47.335636,-98.005241
521,0,740.537170,175.302261,41.445686,745.966919,3.595826,4.694046,740.814270,-37.092499,-38.484665,714.748962,-48.667187,-95.099991
522,0,740.326843,175.447800,42.298187,746.196777,3.446980,7.356610,741.365906,-37.670666,-35.405891,715.623230,-50.051563,-92.053375
523,0,740.110352,175.572388,43.189358,746.434204,3.433035,10.074186,741.773254,-38.228439,-32.207451,716.460815,-51.296886,-88.895569
524,0,740.288574,176.021500,44.392212,746.595886,3.454028,12.773493,742.311523,-38.716278,-28.890726,717.377136,-52.672756,-85.569199
525,0,740.255188,176.302063,45.365654,746.689941,3.502770,15.530158,742.712952,-39.292149,-25.597475,718.272217,-53.848190,-82.281441
526,0,740.254028,176.673737,46.562901,746.776245,3.614123,18.373714,743.125366,-39.760841,-22.269512,719.216858,-55.004234,-78.963432
527,0,740.262268,177.006927,47.628109,747.171631,3.731445,21.203796,743.867249,-39.980530,-18.984838,720.362732,-56.194763,-75.654793
528,0,740.242981,177.360489,48.761879,747.366272,3.897257,23.928556,744.357300,-40.398674,-15.754331,721.428040,-57.192543,-72.419304
529,0,740.245544,177.823471,49.810368,747.720398,4.106268,26.565083,745.314636,-40.469051,-12.629808,722.545227,-58.003799,-69.314705
530,0,740.096741,178.083984,50.740822,748.031555,4.329774,29.195665,745.796936,-40.717129,-9.622083,723.653870,-58.811157,-66.236916
531,0,739.949158,178.498123,51.743225,748.306152,4.624250,31.655252,746.585693,-40.695045,-6.624907,724.609253,-59.690701,-63.129028
532,0,739.835938,178.973831,52.729691,748.609558,4.901132,34.110622,747.130737,-40.800179,-3.873235,725.376282,-59.721977,-60.658897
533,0,739.786804,179.439133,53.586624,748.960266,5.176700,36.650990,747.474792,-41.006798,-1.101178,726.039124,-60.306099,-57.951065
534,0,739.823547,179.950867,54.371426,749.064880,5.542586,38.741119,748.192322,-40.865124,1.629977,726.514221,-60.581108,-55.541569
535,0,739.856750,180.413315,54.986450,749.570618,5.834935,41.204815,748.554016,-40.974304,4.277064,726.796509,-60.770023,-53.072479
536,0,740.094177,180.795609,55.495327,749.731201,6.111850,43.415657,749.006897,-41.032974,6.833116,726.983521,-60.911400,-50.628220
537,0,740.324463,181.158295,55.923828,750.203613,6.524812,45.242077,749.432312,-41.184189,9.251455,727.009338,-60.969307,-48.327316
538,0,740.597229,181.511337,56.345520,750.440125,6.672165,47.225761,749.689331,-41.311089,11.464783,727.064270,-60.792694,-46.243931
539,0,740.834167,181.791245,56.699863,750.824524,6.904365,48.873810,749.970642,-41.457989,13.295561,727.024292,-60.269161,-44.709866
540,0,741.023193,182.026276,57.008358,751.091248,7.108535,50.225471,750.245850,-41.521374,14.962827,726.910706,-59.202461,-43.688705
541,0,741.156616,182.155136,57.243389,751.468628,7.216058,51.520874,750.579102,-41.629963,16.311682,726.926270,-57.472881,-43.114876
542,0,741.279663,182.236435,57.433975,751.865173,7.260042,52.574093,750.662170,-41.850426,17.374783,726.987427,-55.278553,-42.970684
543,0,741.387390,182.242432,57.575119,752.375000,7.295263,53.408627,751.245239,-41.904503,18.032682,727.154846,-52.753441,-43.136009
544,0,741.509644,182.238480,57.571438,752.856445,7.283844,53.907017,752.159363,-42.015396,18.495186,727.275146,-50.252724,-43.251286
545,0,741.582703,182.204178,57.531075,753.326843,7.250065,54.206734,752.721069,-42.106697,18.757071,727.430176,-47.455914,-43.647358
546,0,741.619019,182.117126,57.332973,753.680969,7.184123,54.329697,753.332764,-42.247089,18.860403,727.889893,-44.473099,-43.841499
547,0,741.562561,181.945465,57.002850,753.854065,7.095170,54.316032,753.796570,-42.414120,18.724115,728.234863,-41.040237,-44.109612
548,0,741.414795,181.773865,56.599819,753.930908,7.000934,54.130352,754.289490,-42.588730,18.482626,728.483215,-36.546169,-44.494549
549,0,741.164368,181.619110,56.186878,753.955078,6.876247,53.737316,754.776428,-42.590172,17.954294,728.433044,-33.023144,-44.663895
550,0,740.921753,181.405319,55.672165,754.039185,6.742939,53.125004,754.955505,-42.802223,17.260569,728.402954,-29.474419,-44.374435
551,0,740.697205,181.134262,55.053745,754.082825,6.574163,52.313610,754.617920,-43.236462,16.298403,727.850220,-25.606142,-44.693722
552,0,740.664001,180.863861,54.352623,754.147156,6.356503,51.517429,754.351807,-43.553444,15.172017,727.443726,-22.555418,-44.555466
553,0,740.618103,180.578857,53.642929,754.117493,6.070577,50.438534,754.238892,-43.613895,13.733455,727.039612,-19.763962,-44.489536
554,0,740.571289,180.232834,52.875748,754.024841,5.701941,49.168205,753.856812,-44.025543,12.130803,726.744324,-16.950571,-44.340416
555,0,740.517761,179.793152,52.023026,753.897827,5.334428,47.792225,753.366516,-44.274628,10.087232,726.607422,-13.639213,-44.106503
556,0,740.375671,179.350296,51.197315,753.608887,4.832611,46.197071,752.550964,-44.192070,7.695490,726.852112,-9.001432,-44.382584
557,0,740.246521,178.834976,50.273003,753.321533,4.309203,44.586269,751.785889,-44.349762,5.253280,726.364502,-6.340113,-44.349728
558,0,740.134521,178.386414,49.404583,753.120483,3.786734,42.854218,750.744202,-44.483543,2.576959,725.597900,-4.319158,-44.861137
559,0,740.019165,177.904053,48.510014,752.905701,3.227904,41.062244,749.890808,-44.563122,-0.034746,725.893188,-0.935641,-44.821484
560,0,739.939514,177.382019,47.450436,752.672119,2.694968,39.200520,749.073059,-44.674587,-2.677653,725.652161,1.039447,-44.620705
561,0,739.874756,176.918259,46.494316,752.526794,2.143813,37.398151,748.149719,-44.833408,-5.349643,724.650208,2.245161,-44.613686
562,0,739.758789,176.439423,45.419590,752.338379,1.625087,35.680782,746.957458,-44.669651,-7.945151,724.107300,4.225295,-44.645027
563,0,739.608093,175.975632,44.383694,751.992004,1.104097,33.896244,746.204712,-44.531761,-10.564370,723.618591,5.571669,-45.087395
564,0,739.337524,175.458466,43.245209,751.765930,0.595982,32.168777,745.207520,-44.331142,-13.190370,725.906738,6.534356,-44.154606
565,0,739.213074,175.043396,42.262909,751.485840,0.079265,30.450344,744.367920,-44.096695,-15.863370,,,
566,0,739.030212,174.584503,41.368542,751.185303,-0.446725,28.774958,743.063049,-43.353447,-18.784569,,,
567,0,738.876343,174.097504,40.499039,750.995300,-1.007888,27.089691,742.031738,-42.628731,-21.699371,,,
568,0,738.756775,173.730560,39.843689,750.932800,-1.521175,25.508278,741.238770,-41.734749,-24.486376,,,
569,0,738.624756,173.324585,39.200226,750.783447,-2.096959,24.065374,740.417175,-40.678123,-27.197514,,,
570,0,738.533081,173.017303,38.680782,750.753723,-2.537104,22.740534,739.775024,-39.569256,-29.696491,,,
571,0,738.526611,172.765427,38.248466,750.697083,-2.925995,21.567404,739.211548,-38.440742,-31.988628,,,
572,0,738.499512,172.482864,37.773060,750.627136,-3.333077,20.679363,738.578552,-37.154236,-33.962894,,,
573,0,738.491211,172.279999,37.440086,750.593750,-3.659477,20.054783,738.008606,-35.804115,-35.568928,,,
574,0,738.540710,172.096390,37.204300,750.659607,-3.993210,19.655380,737.604431,-34.329559,-36.902092,,,
575,0,738.651917,171.941040,36.976921,750.802307,-4.327553,19.494816,737.107605,-32.641319,-38.161476,,,
576,0,738.819702,171.820908,36.880230,751.006531,-4.574436,19.430887,736.644714,-31.089273,-38.974636,,,
577,0,739.063599,171.754654,36.870403,751.232422,-4.768353,19.454355,736.059448,-29.674446,-39.471622,,,
578,0,739.343018,171.748276,36.964939,751.311218,-4.836752,19.515984,735.457764,-28.293306,-39.827904,,,
579,0,739.572632,171.670441,37.123302,751.231628,-4.926335,19.571201,734.764282,-27.031492,-40.150654,,,
580,0,739.856384,171.703201,37.316544,750.945740,-4.890487,19.582973,733.724182,-25.973928,-40.356674,,,
581,0,740.114502,171.772598,37.462360,750.586243,-4.757135,19.556581,732.757812,-25.101336,-40.465523,,,
582,0,740.290039,171.805267,37.481911,750.294983,-4.652506,19.341541,731.812805,-24.301952,-40.623676,,,
583,0,740.424744,171.843719,37.411083,750.119629,-4.530704,18.985826,730.790466,-23.553234,-40.944370,,,
584,0,740.538574,171.834564,37.193745,749.924072,-4.436990,18.426584,729.903687,-22.902149,-41.373375,,,
585,0,740.697632,171.806152,36.932186,749.817200,-4.369577,17.786404,728.999634,-22.330643,-41.886921,,,
586,0,740.837219,171.796417,36.619614,749.696533,-4.318111,17.091797,728.287048,-21.815889,-42.578949,,,
587,0,740.847473,171.717392,36.216301,749.419128,-4.236523,16.384876,727.700623,-21.385740,-43.375736,,,
588,0,740.825989,171.628845,35.819603,749.142883,-4.237701,15.539051,727.236450,-20.996857,-44.159454,,,
589,0,740.744263,171.522308,35.429264,748.969299,-4.178969,14.750996,727.004028,-20.655283,-44.916653,,,
590,0,740.699524,171.413864,35.080387,748.890869,-4.167715,13.936329,726.758362,-20.375484,-45.704075,,,
591,0,740.689087,171.336456,34.774078,748.980835,-4.154397,13.212507,726.388855,-20.105186,-46.395672,,,
592,0,740.759644,171.249268,34.511082,749.122681,-4.168374,12.621943,726.135437,-19.885847,-46.996033,,,
593,0,740.834717,171.186340,34.278870,749.228638,-4.130782,12.134927,725.885071,-19.701387,-47.344322,,,
594,0,740.941528,171.161667,34.137508,749.278687,-4.120998,11.832309,725.695679,-19.555948,-47.545750,,,
595,0,740.991150,171.160873,34.007862,749.232727,-4.087779,11.668630,725.630249,-19.497463,-47.631767,,,
596,0,740.979858,171.104843,33.951977,749.301331,-4.070611,11.611747,725.676147,-19.443727,-47.678341,,,
597,0,740.918518,171.105240,33.937752,749.339050,-4.052487,11.609299,725.831665,-19.405563,-47.690472,,,
598,0,740.855225,171.093262,33.993362,749.438110,-4.035116,11.675042,725.993652,-19.350254,-47.664448,,,
599,0,740.853638,171.100494,34.035782,749.498718,-4.014046,11.743569,726.055481,-19.295858,-47.630074,,,
600,0,740.920898,171.151840,34.039837,749.553223,-3.971833,11.866344,726.030884,-19.264145,-47.541840,,,
601,0,741.021606,171.212341,34.036469,749.567932,-3.909406,12.102477,725.915771,-19.311993,-47.245125,,,
602,0,741.054443,171.275879,33.970032,749.619568,-3.834075,12.435284,725.803467,-19.398132,-46.805595,,,
603,0,741.090088,171.317291,33.976112,749.648193,-3.774210,12.741895,725.671570,-19.505529,-46.383064,,,
604,0,741.081665,171.341965,33.969364,749.669434,-3.715238,12.962523,725.654236,-19.547983,-46.041512,,,
605,0,741.031799,171.388733,34.027451,749.685913,-3.658854,13.157374,725.621887,-19.571693,-45.845573,,,
606,0,740.933411,171.412628,34.101940,749.686279,-3.650004,13.286025,725.668884,-19.541506,-45.717266,,,
607,0,740.862061,171.429108,34.115612,749.752075,-3.623133,13.330049,725.680115,-19.544319,-45.605137,,,
608,0,740.807800,171.462448,34.097160,749.808228,-3.583010,13.288771,725.603638,-19.520435,-45.571491,,,
609,0,740.794495,171.485947,34.052116,749.790771,-3.551939,13.234866,725.495361,-19.502502,-45.608616,,,
610,0,740.802795,171.506134,33.960648,749.736938,-3.491709,13.251034,725.414856,-19.550884,-45.529617,,,
611,0,740.794678,171.495743,33.886860,749.701965,-3.455567,13.336263,725.332703,-19.634701,-45.309269,,,
612,0,740.830078,171.498978,33.783363,749.709351,-3.398019,13.524445,725.228638,-19.782150,-44.990299,,,
613,0,740.889404,171.534866,33.756008,749.831848,-3.325380,13.812239,725.166321,-19.956949,-44.499649,,,
614,0,740.940247,171.548080,33.753914,750.009705,-3.278974,14.186947,725.115662,-20.122169,-44.018200,,,
615,0,741.031616,171.593018,33.810993,750.135559,-3.226076,14.663741,725.049622,-20.243471,-43.502808,,,
616,0,741.098083,171.651260,33.955479,750.287354,-3.132814,15.167220,725.035095,-20.384306,-42.952652,,,
617,0,741.106567,171.725952,34.095043,750.380493,-3.077657,15.643779,725.044556,-20.442257,-42.348751,,,
618,0,741.118103,171.799850,34.243946,750.430603,-2.998520,16.184898,725.055603,-20.577616,-41.723106,,,
619,0,741.147583,171.863205,34.359528,750.407471,-2.926820,16.692392,725.062195,-20.710741,-40.998501,,,
620,0,741.181091,171.937592,34.446095,750.446960,-2.843457,17.142683,724.927307,-20.895855,-40.294350,,,
621,0,741.217834,171.994919,34.482815,750.641357,-2.694734,17.705868,724.803711,-21.111216,-39.673351,,,
622,0,741.221680,172.102844,34.542416,750.716187,-2.576581,18.237112,724.757568,-21.350309,-39.010201,,,
623,0,741.187256,172.153900,34.541470,750.744019,-2.456409,18.899382,724.879639,-21.734936,-38.214657,,,
624,0,741.021484,172.224167,34.556492,751.006409,-2.264568,19.548271,725.142395,-22.178171,-37.322353,,,
625,0,740.830444,172.275681,34.588856,750.970764,-2.130981,20.389240,725.391968,-22.716869,-36.306118,,,
626,0,740.634888,172.400452,34.679913,751.014038,-1.938280,21.351673,725.706665,-23.315731,-35.230667,,,
627,0,740.415710,172.489517,34.719036,751.138245,-1.642230,22.563442,726.053223,-24.102806,-33.913609,,,
628,0,740.009277,172.490982,34.629711,751.284973,-1.332825,23.979202,726.727539,-25.019115,-32.098324,,,
629,0,739.677673,172.561722,34.599522,751.448853,-0.860728,25.685682,727.326721,-26.126999,-29.996906,,,
630,0,739.322754,172.569107,34.527199,751.713928,-0.277741,27.618748,728.194092,-27.389143,-27.432999,,,
631,0,738.941040,172.612350,34.511944,751.870850,0.344213,29.728840,729.132690,-28.683525,-24.639666,,,
632,0,738.608276,172.660706,34.617313,752.021057,0.965259,31.980042,729.932922,-29.924639,-21.795311,,,
633,0,738.220398,172.675583,34.822987,752.093933,1.570391,34.014099,730.803955,-31.043262,-19.031122,,,
634,0,737.927063,172.798386,35.186020,752.227234,2.065512,35.786755,731.554382,-31.998024,-16.533840,,,
635,0,737.789490,173.000900,35.717682,752.279053,2.393341,37.363388,731.925903,-32.795784,-14.417913,,,
636,0,737.613342,173.250519,36.354687,752.306519,2.656231,38.823917,732.353455,-33.514877,-12.467281,,,
637,0,737.480957,173.485291,36.894665,752.223816,2.782759,39.949471,732.462952,-34.110741,-10.961632,,,
638,0,737.351379,173.750473,37.579346,752.178650,2.853508,40.951305,732.667053,-34.656151,-9.475186,,,
639,0,737.161987,174.026947,38.279728,751.808105,2.842310,41.844200,732.779541,-35.206772,-8.199150,,,
640,0,737.021240,174.397461,39.094448,751.378540,2.831073,42.564011,732.732117,-35.580242,-7.333558,,,
641,0,736.837158,174.766937,39.831543,750.932800,2.667312,43.026981,732.669678,-36.003345,-6.705438,,,
642,0,736.646973,175.119568,40.727348,750.472473,2.498505,43.290260,732.796570,-36.493881,-6.125254,,,
643,0,736.099365,175.175613,41.281288,750.168945,2.380351,43.381634,732.862061,-37.013191,-5.744249,,,
644,0,735.985413,175.624161,42.387299,749.892273,2.188896,43.146725,733.083557,-37.589310,-5.617738,,,
645,0,735.805298,175.933411,43.293705,749.688293,1.913917,42.618595,733.526245,-38.178280,-5.821625,,,
646,0,735.534729,176.075760,44.036743,749.658081,1.639990,41.828888,733.899902,-38.647869,-6.332794,,,
647,0,735.547546,176.476501,45.064056,749.577942,1.434857,40.908047,734.264038,-38.971561,-6.987809,,,
648,0,735.516052,176.784500,46.109905,749.385254,1.361362,39.906643,734.625488,-39.233913,-7.700476,,,
649,0,735.431641,177.099075,47.019199,749.122681,1.353464,38.777977,735.095093,-39.365490,-8.557620,,,
650,0,735.410156,177.423157,47.820965,748.772217,1.401650,37.750221,735.564148,-39.119801,-9.743498,709.669495,9.510237,-45.347214
651,0,735.483459,177.701996,48.614071,748.294617,1.538779,36.665836,736.430664,-38.636257,-11.110824,708.772522,7.540313,-48.552761
652,0,735.375061,177.995911,49.459400,747.684753,1.747731,35.536770,736.869812,-37.839661,-12.621211,709.003052,1.625100,-51.413284
653,0,735.389282,178.243073,50.278202,747.465088,2.045527,34.578701,737.187378,-36.918789,-13.936434,709.067322,9.163480,-59.351292
654,0,735.323120,178.281601,50.785973,747.165161,2.339106,33.643467,737.497864,-35.731861,-15.353424,709.463379,-0.599836,-60.618324
655,0,735.348450,178.488068,51.499527,746.878418,2.646189,32.756477,737.761963,-34.406616,-16.841839,708.942139,-1.489304,-64.046730
656,0,735.293579,178.561172,51.983669,746.680847,2.963063,32.118130,737.710999,-33.085480,-18.013365,707.957092,-3.162275,-67.076309
657,0,735.268372,178.681244,52.541664,746.822388,3.340247,31.550837,737.354370,-32.054787,-18.722414,707.369873,-6.106575,-69.999565
658,0,735.164429,178.792084,53.149044,746.412292,3.632740,31.304020,737.296753,-31.216574,-19.050030,708.686523,-9.400344,-73.094353
659,0,734.964783,178.877304,53.720337,746.273010,4.044291,31.076540,738.433594,-30.256372,-19.559490,710.644043,-12.561661,-75.077286
660,0,734.641174,179.071747,54.319561,746.194336,4.442705,31.055540,739.934265,-29.233105,-19.995382,712.208679,-14.475736,-76.392334
661,0,734.470459,179.214127,54.888264,746.229614,4.840769,31.137066,740.767151,-28.364750,-20.115595,713.895203,-16.021311,-77.197952
662,0,734.405273,179.436020,55.452145,746.444397,5.145574,31.497381,741.319763,-27.567728,-20.105167,715.339417,-16.890741,-77.567322
663,0,734.405762,179.628464,56.034767,746.804382,5.410171,32.005573,742.196289,-26.708706,-19.953098,716.632446,-16.310791,-78.112541
664,0,734.545776,179.787781,56.546207,747.209778,5.647531,32.727547,743.115845,-25.824116,-19.712856,718.188660,-16.146555,-78.070808
665,0,734.608521,179.969818,57.081284,747.694702,5.911921,33.580887,744.101196,-25.029358,-19.366121,719.634949,-15.751045,-77.808243
666,0,734.721130,180.109314,57.568748,747.881592,6.131308,34.479351,745.057129,-24.353497,-18.807432,721.075256,-15.483406,-77.308182
667,0,734.839111,180.267197,58.006294,748.423401,6.280272,35.629292,745.775879,-24.007826,-17.911175,722.388794,-15.525247,-76.459068
668,0,734.935974,180.441269,58.367023,749.200256,6.319629,37.017590,746.554077,-23.960520,-16.679806,723.695984,-15.829472,-75.466591
669,0,735.102905,180.616241,58.641056,749.631287,6.358007,38.284016,747.597412,-24.009462,-15.286704,725.261108,-16.135012,-74.320930
670,0,735.277771,180.790939,58.863354,750.242859,6.416165,39.852520,748.749207,-24.078388,-13.872007,726.787781,-16.297993,-73.106544
671,0,735.438660,180.999176,59.100670,750.534424,6.468288,41.304863,749.755981,-24.197412,-12.359341,728.190735,-16.449955,-71.752121
672,0,735.698486,181.221024,59.358345,750.718506,6.518126,42.779705,750.372681,-24.398277,-10.923698,729.201355,-16.888987,-70.501953
673,0,735.858337,181.419373,59.643211,750.483215,6.666739,44.030598,750.783752,-24.647150,-9.429976,729.874023,-17.565491,-69.281158
674,0,736.104736,181.653473,59.943760,750.742188,6.730702,44.977013,750.938354,-24.856585,-8.160297,730.394104,-18.501461,-68.215706
675,0,736.284790,181.760391,60.183952,750.678650,6.855101,45.756355,750.923035,-24.881514,-7.298284,730.851440,-19.474112,-67.369759
676,0,736.577637,181.874161,60.417698,750.589294,6.931497,46.394508,750.773132,-24.852318,-6.598817,731.027710,-20.387264,-66.398621
677,0,736.844910,182.011627,60.593208,750.521362,6.992816,46.842842,750.584534,-24.826305,-6.076408,730.708252,-21.072966,-65.816490
678,0,737.193481,182.117615,60.714050,750.611511,7.049259,47.300575,750.244873,-24.722294,-5.737846,730.049011,-21.264219,-65.457420
679,0,737.448547,182.255524,60.850033,750.664368,7.109113,47.617069,749.655334,-24.462025,-5.644035,729.268921,-20.792372,-65.008530
680,0,737.658081,182.368301,60.890575,750.353638,7.156451,47.909138,749.175293,-24.189503,-5.520097,728.586731,-20.406805,-64.715057
681,0,737.666870,182.477646,60.884056,749.930237,7.220118,48.177170,748.452820,-24.050795,-5.349866,727.870422,-20.245611,-64.406662
682,0,737.605042,182.559235,60.823460,749.551514,7.234983,48.408619,747.893982,-24.073584,-5.065800,727.242859,-20.427870,-64.106194
683,0,737.473877,182.554489,60.722126,749.186951,7.151184,48.640827,747.451172,-24.186424,-4.755744,726.774963,-20.892841,-63.795090
684,0,737.397583,182.519043,60.593552,748.910217,7.184030,48.531231,747.061829,-24.364813,-4.547202,726.325867,-21.466909,-63.554531
685,0,737.447327,182.457413,60.508442,748.729126,7.069502,48.506596,746.620361,-24.447849,-4.610466,725.741211,-21.916403,-63.415474
686,0,737.568115,182.387497,60.444736,748.656555,7.005396,48.342312,746.109131,-24.398764,-4.854861,724.968201,-22.297358,-63.714756
687,0,737.675598,182.295822,60.417664,748.347107,6.940974,48.097599,745.663452,-24.210142,-5.348310,724.375061,-22.321283,-63.990711
688,0,737.793152,182.190842,60.490936,748.158508,6.828329,47.589890,745.325256,-23.892817,-6.022511,723.999878,-22.001228,-64.566231
689,0,737.729919,182.078339,60.554184,748.066772,6.776569,46.955154,745.191772,-23.472961,-6.874377,723.938293,-21.691626,-65.373924
690,0,737.590393,181.954636,60.627670,748.136597,6.650742,46.204731,745.195496,-22.974457,-8.040668,724.121826,-21.259317,-66.338509
691,0,737.485962,181.851974,60.617687,748.045471,6.651209,45.334568,745.255676,-22.451956,-9.201715,724.671082,-20.851042,-67.484558
692,0,737.395142,181.806595,60.562706,748.106018,6.721511,44.435482,745.667603,-21.832478,-10.358549,725.311340,-20.259979,-68.644951
693,0,737.410095,181.797058,60.470737,748.209473,6.864254,43.570545,746.076050,-21.109339,-11.489968,725.928162,-19.539366,-69.775169
694,0,737.460693,181.812561,60.365879,748.380737,6.965506,42.814812,746.269409,-20.498049,-12.591035,726.332458,-18.680740,-70.798302
695,0,737.586243,181.820236,60.179893,748.565918,7.097970,42.121445,746.473938,-19.993576,-13.461473,726.445068,-17.821348,-71.687164
696,0,737.669189,181.864059,60.026367,748.694824,7.191294,41.463043,746.669250,-19.561714,-14.268913,726.749207,-17.089657,-72.486336
697,0,737.784241,181.891098,59.929466,748.966064,7.291026,40.950420,747.063965,-19.110653,-14.957468,727.245056,-16.618698,-73.187477
698,0,737.910645,181.894318,59.884045,748.949280,7.526758,40.327808,747.475525,-18.679533,-15.645923,727.893860,-16.245644,-73.893593
699,0,738.063110,181.923050,59.901642,749.389282,7.625116,39.864777,747.905823,-18.210125,-16.244453,728.423279,-15.769504,-74.508415
700,0,738.211487,181.962143,59.959808,749.515076,7.820949,39.448009,748.332581,-17.763103,-16.750217,728.919006,-15.261262,-74.978928
701,0,738.315979,182.036392,60.065861,749.539856,8.013644,39.225082,748.617371,-17.256777,-17.116119,729.358826,-14.571577,-75.367325
702,0,738.311462,182.135071,60.223885,749.661926,8.168871,39.217327,748.814575,-16.775494,-17.306223,729.578247,-13.816935,-75.542519
703,0,738.233032,182.227432,60.340118,749.747742,8.276139,39.333931,748.811279,-16.426275,-17.321924,729.742432,-13.247463,-75.548515
704,0,738.170227,182.291824,60.481499,749.856262,8.361131,39.615841,748.879822,-16.269464,-17.114321,729.835449,-13.045819,-75.317299
705,0,738.229065,182.426315,60.655602,749.975159,8.413374,39.995220,748.968506,-16.219286,-16.762287,729.931458,-13.176921,-74.934006
706,0,738.330322,182.546890,60.797718,749.971924,8.495344,40.398869,748.972839,-16.252434,-16.275240,729.870728,-13.404314,-74.467850
707,0,738.489075,182.662094,61.006847,749.953796,8.556878,40.839321,748.975647,-16.286289,-15.814137,729.758606,-13.655601,-73.839127
708,0,738.617676,182.784760,61.151619,749.989014,8.627522,41.238922,748.893982,-16.281301,-15.334022,729.418091,-13.664575,-73.320549
709,0,738.655884,182.901596,61.391697,750.038696,8.713998,41.687672,748.872620,-16.203514,-14.850383,729.214722,-13.579532,-72.873856
710,0,738.639038,182.996338,61.546268,750.052917,8.816252,42.066177,748.702942,-16.096775,-14.504126,729.078186,-13.317766,-72.554108
711,0,738.637817,183.102341,61.747540,750.091370,8.889886,42.407272,748.624084,-16.018469,-14.237766,729.022095,-13.221031,-72.221184
712,0,738.624634,183.163452,61.851097,750.273560,8.925456,42.777637,748.629089,-16.001801,-13.875233,729.035522,-13.196436,-71.834991
713,0,738.736145,183.267242,61.934650,750.474304,8.981246,43.110580,748.743103,-16.068747,-13.430471,729.063782,-13.431207,-71.416473
714,0,738.823059,183.349243,62.033791,750.628357,9.034705,43.406368,748.931091,-16.154772,-13.017044,729.175476,-13.779744,-70.964249
715,0,738.880920,183.413071,62.131069,750.710815,9.064283,43.808575,749.074646,-16.210455,-12.607924,729.362183,-13.994714,-70.566025
716,0,738.902344,183.478775,62.247601,750.884705,9.080396,44.186184,749.221069,-16.259991,-12.247407,729.501404,-14.049904,-70.229515
717,0,738.964600,183.540115,62.322872,750.557312,9.221727,44.366074,749.343323,-16.280821,-11.971032,729.544373,-14.066235,-69.977753
718,0,739.018127,183.595673,62.326832,750.724670,9.250587,44.662273,749.396240,-16.327787,-11.663379,729.592468,-14.076173,-69.660835
719,0,739.144531,183.646133,62.351898,751.167419,9.221554,44.990551,749.494385,-16.378551,-11.399904,729.703674,-14.167415,-69.335434
720,0,739.313599,183.697708,62.366577,751.440552,9.276003,45.226318,749.724060,-16.384016,-11.113608,729.817749,-14.221654,-69.060127
721,0,739.472656,183.783234,62.419197,751.751282,9.317441,45.450645,749.967834,-16.413500,-10.864872,729.879822,-14.180361,-68.798866
722,0,739.709595,183.863998,62.441536,751.835388,9.452787,45.588238,750.211548,-16.458651,-10.543530,729.991211,-14.162822,-68.468597
723,0,739.895813,183.945221,62.503399,752.217163,9.492289,45.953705,750.458801,-16.546410,-10.209867,730.107788,-14.220067,-68.100021
724,0,740.048950,184.031784,62.564709,752.548035,9.521242,46.303360,750.881104,-16.686543,-9.747655,730.360901,-14.362174,-67.691750
725,0,740.230591,184.134857,62.665703,752.883057,9.611917,46.660172,751.153442,-16.775108,-9.286686,730.762451,-14.703931,-67.263748
726,0,740.383667,184.258545,62.740906,753.207947,9.673896,47.009521,751.579956,-16.853559,-8.846223,731.250488,-15.029195,-66.546341
727,0,740.582703,184.370728,62.893867,753.611694,9.797491,47.395313,751.933350,-16.854261,-8.436196,731.406677,-15.085758,-66.100052
728,0,740.838745,184.514023,63.040794,754.086792,9.910980,47.865189,752.219360,-16.827133,-7.968108,731.518066,-15.164693,-65.543930
729,0,741.066833,184.636398,63.226997,754.478088,10.056437,48.423370,752.419067,-16.850950,-7.289783,731.513367,-15.235117,-64.998039
730,0,741.270630,184.813751,63.402542,754.936951,10.099566,49.238525,752.580811,-17.035221,-6.430851,731.489075,-15.545276,-64.234032
731,0,741.395508,185.025421,63.592033,755.215881,10.158870,50.127983,752.892578,-17.369032,-5.306246,731.773865,-16.181725,-63.130207
732,0,741.509521,185.208893,63.737862,755.519470,10.251884,51.284317,753.045410,-17.904661,-3.894220,731.699646,-17.024584,-61.881031
733,0,741.582886,185.391556,63.893871,755.825989,10.317922,52.691547,753.364197,-18.693895,-2.007296,731.855286,-18.367405,-60.201920
734,0,741.645081,185.628372,64.028183,756.077332,10.335352,54.383400,753.645691,-19.699873,0.119226,731.962097,-20.117807,-58.073742
735,0,741.790527,185.906494,64.136421,756.538940,10.449132,56.270302,753.825439,-20.946148,2.744057,731.815125,-22.267475,-55.639698
736,0,741.863159,186.181488,64.219978,756.229248,10.333547,58.526970,753.925842,-22.387806,5.733377,731.503479,-24.665298,-52.892574
737,0,741.972534,186.332993,64.094025,756.516052,10.594592,60.479858,753.990295,-24.020445,9.045544,731.211975,-27.418226,-49.648483
738,0,741.964233,186.523239,64.005768,756.271484,10.602315,63.033283,753.953003,-25.718374,12.602833,730.772644,-30.421114,-46.127052
739,0,741.968689,186.681427,63.919952,756.191040,10.757877,65.218910,753.696045,-27.429304,16.332766,730.300110,-33.538364,-42.359406
740,0,741.932861,186.788132,63.784679,756.553833,11.045520,67.395447,753.529968,-29.070166,20.051708,729.809082,-36.673546,-38.551582
741,0,741.940125,186.915176,63.747139,756.463501,11.304905,69.439178,753.208862,-30.609015,23.721653,729.484680,-39.762226,-34.731434
742,0,741.874878,186.896744,63.541241,756.640930,11.641471,71.270981,753.207092,-32.115246,27.261442,728.790588,-42.960617,-30.996660
743,0,741.813354,186.783310,63.297771,756.568604,11.874413,72.801125,752.998535,-33.197601,30.299374,728.228577,-45.744324,-27.668280
744,0,741.710876,186.618286,63.001060,756.509827,12.179307,73.996132,752.559631,-34.105518,32.973248,727.774170,-48.500183,-24.538002
745,0,741.606262,186.581131,62.843712,756.407715,12.382743,74.823570,752.092712,-34.964561,35.187382,727.233398,-50.992054,-21.915350
746,0,741.485901,186.611725,62.879101,756.018677,12.496788,75.311340,751.346313,-35.803665,36.866894,726.654480,-52.984268,-19.899834
747,0,741.300903,186.482178,62.817760,755.634277,12.522808,75.430679,750.692627,-36.174385,37.854908,725.955627,-54.405529,-18.725483
748,0,741.068237,186.406799,62.789230,755.250793,12.433537,75.105370,749.846436,-36.486660,37.994572,725.185242,-55.313747,-18.363729
749,0,740.882751,186.341385,62.839672,754.665833,12.216789,74.424065,748.912109,-36.759308,37.432987,724.360901,-55.753868,-18.828499
750,0,740.691101,186.335464,62.908234,754.046875,11.942978,73.409889,747.915222,-36.667622,35.957134,723.567261,-55.836620,-20.038939
751,0,740.448059,186.316132,63.049473,753.744629,11.648867,71.858536,746.928589,-36.487003,33.945938,722.747742,-55.829067,-21.798691
752,0,740.306335,186.332352,63.197323,753.268677,11.344027,69.916939,746.319641,-36.206291,31.540152,722.120850,-55.892445,-23.902962
753,0,740.102844,186.314346,63.293396,752.710693,11.043571,67.821053,745.666809,-36.031219,28.939175,721.695557,-55.990406,-26.299801
754,0,739.965637,186.240860,63.410797,752.082764,10.741162,65.496346,745.285645,-35.268929,25.755079,721.553162,-56.082176,-28.820068
755,0,739.820679,186.147461,63.445240,751.601807,10.647408,63.025749,744.791199,-34.671474,22.625778,721.588379,-56.239796,-31.431250
756,0,739.733826,185.967270,63.396072,751.133057,10.618702,60.469990,744.443298,-34.078995,19.564537,721.692566,-56.290962,-34.035053
757,0,739.633606,185.760345,63.209064,751.162354,10.947542,57.271477,744.239929,-33.406761,16.494690,722.003052,-56.274242,-36.537891
758,0,739.570007,185.541779,62.940231,751.049622,10.917167,54.534908,744.022400,-32.936062,13.469987,722.063110,-56.123829,-39.267765
759,0,739.536255,185.195435,62.512039,751.074280,10.908704,52.094833,744.067078,-32.331303,10.664371,722.642273,-56.133022,-41.610111
760,0,739.558777,184.812805,61.946301,751.109985,10.908026,49.780277,744.500305,-31.732447,8.000296,723.296326,-56.241928,-43.954948
761,0,739.718018,184.462646,61.219822,751.189209,10.867295,47.591358,744.832886,-31.514763,5.511250,724.317993,-56.397377,-46.059036
762,0,739.844788,184.201004,60.540321,750.983276,10.842116,45.475910,745.249695,-31.139292,3.241261,724.880920,-56.759834,-47.950138
763,0,739.963562,183.841400,59.842762,751.334961,10.739735,43.528706,745.753235,-30.753489,1.035524,725.660522,-56.971405,-49.826199
764,0,740.085571,183.514206,59.264317,751.236389,10.695043,41.542377,746.014343,-30.509127,-1.012269,726.314758,-57.086143,-51.568859
765,0,740.236267,183.201523,58.789780,751.348511,10.617720,39.632694,746.162476,-30.274637,-3.031201,726.378052,-57.305767,-53.148277
766,0,740.296509,182.929901,58.306419,751.425903,10.458690,37.979794,746.017395,-30.128866,-4.889439,726.573669,-57.407429,-54.625484
767,0,740.244751,182.674942,57.927406,751.108704,10.527109,36.107605,745.815491,-29.915890,-6.717336,726.653198,-57.403931,-56.165592
768,0,740.072937,182.418320,57.609894,750.791260,10.543130,34.425266,745.536865,-29.697710,-8.387972,726.960327,-57.249985,-57.685524
769,0,739.864685,182.168182,57.266331,750.454590,10.554977,32.927227,745.342590,-29.397697,-9.974733,726.831726,-56.920288,-59.038113
770,0,739.629639,181.889969,56.943752,750.058533,10.529737,31.585518,745.052490,-29.129622,-11.500954,726.758545,-56.510551,-60.621265
771,0,739.421143,181.622360,56.626263,749.630371,10.530863,30.279060,744.781616,-28.789543,-12.835046,726.308655,-56.857807,-61.581493
772,0,739.234070,181.396317,56.275539,749.208618,10.461242,29.123938,744.504761,-28.592209,-13.970673,726.431824,-56.633377,-62.543556
773,0,738.976074,181.185516,55.947094,748.639526,10.349113,28.182621,743.870544,-28.680389,-15.053588,726.005188,-56.768883,-63.462376
774,0,738.737183,180.896820,55.609455,748.054565,10.203622,27.117361,743.056885,-28.690374,-16.078848,725.321838,-56.878487,-64.042839
775,0,738.494446,180.570709,55.240936,747.341003,9.995798,26.221571,742.524963,-28.713713,-16.827164,724.598022,-57.329350,-64.607620
776,0,738.235046,180.300781,54.865986,746.707397,9.782378,25.330265,741.570190,-28.952023,-17.642220,723.681824,-57.927204,-65.066521
777,0,738.004700,180.015289,54.441864,745.843140,9.538483,24.395704,740.446228,-29.266191,-18.383993,722.172852,-58.313484,-65.842400
778,0,737.776489,179.745605,54.022964,745.166016,9.331013,23.464424,739.262390,-29.332844,-19.135847,720.957397,-58.735764,-66.416878
779,0,737.641357,179.443130,53.489174,744.562256,9.141775,22.533588,738.593994,-29.652966,-19.797394,720.166626,-59.110298,-66.843483
780,0,737.441895,179.235657,53.062111,744.077698,8.961300,21.679205,737.759216,-29.628902,-20.511974,719.237366,-59.454571,-67.422455
781,0,737.226074,178.991638,52.633179,743.459717,8.772529,20.759268,737.157166,-29.821228,-21.290445,718.065857,-59.723270,-68.170654
782,0,736.952759,178.618103,52.226734,743.011536,8.545492,19.955980,736.443848,-30.152180,-22.129738,717.598328,-59.959412,-68.843506
783,0,736.675842,178.358078,51.917080,742.606140,8.342256,19.076710,736.175415,-30.184483,-22.917549,717.314758,-60.205990,-69.646584
784,0,736.423523,178.065155,51.580624,742.204712,8.170411,18.215305,735.664001,-30.434355,-23.832504,717.144165,-60.425709,-70.506020
785,0,736.251953,177.790085,51.265007,741.927673,8.006947,17.296122,735.733643,-30.377510,-24.709723,717.214661,-60.595158,-71.405945
786,0,736.192200,177.502747,50.883678,741.855225,7.896487,16.360514,735.544495,-30.588146,-25.646778,717.226379,-60.687386,-72.304337
787,0,736.172424,177.351868,50.573254,741.945435,7.845699,15.563241,735.786621,-30.604540,-26.504213,717.387451,-60.682785,-73.093193
788,0,736.226074,177.259521,50.240299,741.960205,7.841866,14.749490,735.735901,-30.450575,-27.323397,717.453247,-60.652138,-73.832550
789,0,736.305908,177.225677,49.978222,742.026428,7.868680,14.056008,735.952148,-30.095909,-28.125610,717.725830,-60.101326,-74.905807
790,0,736.429016,177.149689,49.699917,742.112610,7.960053,13.434973,735.919495,-30.112730,-28.717560,717.821411,-59.823399,-75.740005
791,0,736.457275,177.129623,49.577339,742.136536,8.012436,12.923497,736.083557,-29.890913,-29.316671,717.942627,-59.503292,-76.391914
792,0,736.529541,177.084320,49.478695,742.297485,8.115480,12.527006,736.485474,-29.724794,-29.812927,718.168152,-59.095543,-77.055977
793,0,736.570251,177.106232,49.459301,742.451416,8.229117,12.164262,736.646362,-29.447596,-30.251984,718.611023,-58.767326,-77.617599
794,0,736.690979,177.153503,49.496304,742.729065,8.336359,11.940777,737.031494,-29.216530,-30.623920,719.028625,-58.476955,-78.060463
795,0,736.825806,177.220093,49.466946,742.990723,8.453279,11.830154,737.635437,-29.147783,-30.804098,719.600403,-58.273861,-78.398285
796,0,736.971558,177.314575,49.438240,743.255493,8.579378,11.704045,738.126465,-29.037268,-30.917761,720.152039,-58.152256,-78.579109
797,0,737.105286,177.378555,49.452309,743.424744,8.712449,11.625502,738.546326,-28.958958,-30.966774,720.812378,-58.191071,-78.655167
798,0,737.230103,177.422791,49.413124,743.614380,8.762078,11.562606,738.824463,-28.975487,-30.931503,721.216614,-58.306507,-78.676781
799,0,737.317688,177.498352,49.415600,743.752502,8.788383,11.525331,739.024963,-28.992125,-30.925974,721.391296,-58.387806,-78.590096
800,0,737.559692,177.577957,49.442318,743.852966,8.812310,11.497167,739.035950,-28.994534,-30.904453,721.220886,-58.373932,-78.490440
801,0,737.730591,177.608841,49.353725,743.969421,8.808587,11.531205,738.907288,-29.008587,-30.844725,720.807190,-58.259674,-78.400612
802,0,737.928406,177.673035,49.379425,744.151672,8.817250,11.609944,738.725403,-29.025204,-30.759521,720.208801,-58.110607,-78.287064
803,0,738.006714,177.687378,49.393963,744.293091,8.804998,11.766179,738.262268,-28.930262,-30.612246,719.673828,-57.878986,-78.140419
804,0,738.070374,177.732498,49.474953,744.407532,8.800777,12.037086,738.113464,-28.950893,-30.401127,719.344971,-57.835072,-77.883705
805,0,738.042969,177.789093,49.626087,744.461609,8.795470,12.347639,738.333191,-29.041784,-30.065994,719.249634,-57.910320,-77.531509
806,0,738.001221,177.820068,49.764572,744.450439,8.816716,12.677272,738.159058,-29.096704,-29.675194,719.437927,-58.083843,-77.038742
807,0,737.958679,177.904221,49.929325,744.449829,8.814651,13.032512,738.269897,-29.156015,-29.272646,719.612549,-58.286552,-76.576271
808,0,737.904480,177.960770,50.093842,744.481689,8.838121,13.436388,738.428223,-29.197142,-28.799685,719.757751,-58.470802,-76.096581
809,0,737.952148,178.107437,50.278996,744.556396,8.882719,13.845338,738.491821,-29.322664,-28.312078,719.887268,-58.651211,-75.626564
810,0,738.004150,178.192749,50.413956,744.646912,8.909822,14.192026,738.651550,-29.343431,-27.975304,720.184875,-58.851990,-75.156052
811,0,738.105530,178.296631,50.500107,744.741150,8.946785,14.531873,739.101807,-29.547483,-27.568872,720.492615,-59.091064,-74.711823
812,0,738.200867,178.344742,50.599586,744.836182,8.919496,14.818666,739.477112,-29.452579,-27.194460,720.712769,-59.289341,-74.319099
813,0,738.276428,178.358658,50.655712,744.982788,8.908345,15.130964,739.615662,-29.536049,-26.857430,720.834351,-59.521694,-73.899498
814,0,738.389771,178.423859,50.706657,745.116516,8.861355,15.340100,739.726074,-29.603281,-26.583225,720.605591,-59.748447,-73.412933
815,0,738.510010,178.454803,50.744129,745.279114,8.840732,15.528625,739.761902,-29.673861,-26.404385,720.453064,-59.722839,-73.199211
816,0,738.585205,178.462799,50.751598,745.427856,8.847773,15.633924,739.761780,-29.689173,-26.324524,720.331360,-59.587013,-73.184685
817,0,738.729675,178.492706,50.766155,745.560730,8.825212,15.637337,739.559265,-29.601521,-26.361650,720.482117,-59.273159,-73.375343
818,0,738.819824,178.536102,50.744175,745.687012,8.828690,15.637847,739.912231,-29.682302,-26.458067,720.646545,-59.126316,-73.571793
819,0,738.933228,178.556915,50.706730,745.794800,8.842486,15.487332,739.829956,-29.569334,-26.674797,720.872864,-59.031395,-73.855713
820,0,739.038574,178.525055,50.632000,745.955200,8.856774,15.281195,740.349609,-29.619171,-26.899900,721.289795,-58.969193,-74.179703
821,0,739.091248,178.504456,50.511608,746.193542,8.851806,15.043053,740.184387,-29.682901,-27.196833,721.496216,-58.863098,-74.586311
822,0,739.274719,178.477921,50.386364,746.473877,8.868973,14.748860,740.496399,-29.616362,-27.573368,721.809570,-58.704426,-75.020996
823,0,739.432007,178.513062,50.260967,746.788147,8.866405,14.377029,741.144531,-29.625280,-27.971838,722.079529,-58.594593,-75.546616
824,0,739.523193,178.460876,50.093750,746.972229,8.871739,14.013814,741.390076,-29.586285,-28.438023,722.526428,-58.430004,-76.104019
825,0,739.562439,178.476807,49.951000,747.161926,8.879045,13.673962,741.663757,-29.584703,-28.891960,723.100647,-58.408554,-76.568497
826,0,739.565430,178.412613,49.783573,747.234131,8.820097,13.357295,741.963989,-29.589819,-29.293129,723.585754,-58.339752,-77.089218
827,0,739.451172,178.222961,49.508961,747.284241,8.782022,13.136518,742.392273,-29.399052,-29.675919,723.908997,-58.323933,-77.499321
828,0,739.485962,178.178665,49.360214,747.285706,8.734064,12.885115,742.570312,-29.421164,-29.983576,724.064087,-58.287075,-77.855583
829,0,739.543701,178.121307,49.197239,747.400635,8.661523,12.699898,742.638184,-29.450384,-30.156322,724.007874,-58.222507,-78.106239
830,0,739.616272,178.097168,49.054344,747.497742,8.618678,12.573101,742.643372,-29.491692,-30.325705,723.922485,-58.172939,-78.297020
831,0,739.676575,178.051666,48.940975,747.571838,8.598566,12.478194,742.702454,-29.570007,-30.417625,723.853516,-58.151676,-78.449615
832,0,739.743469,178.047318,48.864597,747.611023,8.559034,12.462849,742.785828,-29.673801,-30.402563,723.887878,-58.163422,-78.537292
833,0,739.758911,178.045563,48.834110,747.631592,8.519632,12.497167,742.880615,-29.819342,-30.328979,723.965698,-58.239754,-78.548958
834,0,739.786743,178.057037,48.766884,747.662231,8.453712,12.614992,742.962524,-30.001005,-30.175255,724.055359,-58.339870,-78.472336
835,0,739.835388,178.146042,48.794827,747.695129,8.406195,12.751940,743.103821,-30.207165,-29.957947,724.253845,-58.511848,-78.333817
836,0,739.856995,178.163177,48.773144,747.705750,8.342356,12.965577,743.162781,-30.579304,-29.616318,724.507690,-58.661152,-78.187477
837,0,739.841187,178.183243,48.753937,747.770508,8.256769,13.234303,743.367432,-30.805801,-29.303047,724.870789,-58.812119,-77.994385
838,0,739.866089,178.228210,48.765091,747.905762,8.172471,13.558727,743.724426,-30.987368,-28.954353,725.248718,-58.971455,-77.796539
839,0,739.893311,178.271774,48.761627,748.063477,8.084700,13.936942,744.307922,-31.228947,-28.513790,725.736938,-59.142895,-77.614220
840,0,739.925171,178.344711,48.723206,748.266113,7.958909,14.410625,744.676697,-31.523544,-27.999569,726.362915,-59.342770,-77.305107
841,0,739.969727,178.390091,48.685253,748.407654,7.844593,14.899896,745.129272,-31.880840,-27.433876,726.949646,-59.640099,-76.928688
842,0,740.024353,178.437881,48.661232,748.539062,7.718829,15.452868,745.492004,-32.277168,-26.776611,727.506775,-59.966000,-76.490288
843,0,740.105347,178.520477,48.632435,748.652710,7.591338,15.982749,745.811707,-32.666424,-26.104660,728.047791,-60.318443,-75.958199
844,0,740.152405,178.576630,48.620804,748.782471,7.456304,16.561365,746.100464,-33.149830,-25.393480,728.507263,-60.676670,-75.409004
845,0,740.189575,178.612869,48.583866,748.937378,7.349787,17.047739,746.586853,-33.349159,-24.796709,728.974915,-60.979126,-74.906921
846,0,740.233643,178.668564,48.597733,749.090881,7.207165,17.535706,746.934570,-33.684486,-24.057608,729.377991,-61.216125,-74.488274
847,0,740.266602,178.702438,48.559853,749.188477,7.089396,17.996113,747.251404,-33.967735,-23.506611,729.770447,-61.365261,-74.199333
848,0,740.309082,178.725769,48.600952,749.280457,6.977130,18.408207,747.452942,-34.174362,-23.093451,730.084106,-61.392197,-73.929787
849,0,740.401062,178.757202,48.571621,749.388245,6.902546,18.716566,747.629700,-34.352489,-22.811155,730.289490,-61.282391,-73.823959
850,0,740.413757,178.801895,48.563015,749.540894,6.852154,18.937088,747.854736,-34.494507,-22.604700,730.343079,-61.093410,-73.874123
851,0,740.517944,178.806870,48.528431,749.735535,6.809507,19.137291,747.949158,-34.514301,-22.562233,730.270813,-60.801132,-74.044777
852,0,740.588562,178.861237,48.480423,750.060669,6.683146,19.349522,748.010681,-34.539471,-22.626408,730.097961,-60.431881,-74.285278
853,0,740.703430,178.890305,48.457203,750.178711,6.685315,19.366463,748.028809,-34.532181,-22.711838,729.941101,-59.948235,-74.650261
854,0,740.723999,178.921600,48.416843,750.124878,6.754133,19.151751,748.009460,-34.468788,-22.906950,729.715393,-59.366699,-75.094978
855,0,740.712341,178.916382,48.388149,750.198425,6.737878,19.056295,748.034058,-34.382397,-23.215532,729.666748,-58.760994,-75.704742
856,0,740.676270,178.891907,48.345612,750.328613,6.616385,19.052210,748.070435,-34.237835,-23.655338,729.687927,-58.179100,-76.353790
857,0,740.645447,178.838165,48.319809,750.234131,6.667009,18.651041,748.118164,-34.066952,-24.193838,729.777710,-57.515533,-77.083412
858,0,740.543823,178.764984,48.244133,750.383606,6.561922,18.576567,748.182922,-33.853699,-24.765192,729.828857,-56.818405,-77.899048
859,0,740.605652,178.731155,48.209126,750.433472,6.508586,18.254030,748.238586,-33.700455,-25.427731,729.886719,-56.127190,-78.791275
860,0,740.576721,178.636566,48.059265,750.626892,6.478759,17.884581,748.372498,-33.475140,-26.015383,729.814575,-55.461189,-79.610100
861,0,740.618286,178.579529,47.967312,750.686035,6.571026,17.342590,748.461609,-33.299706,-26.645882,729.710876,-54.884068,-80.342331
862,0,740.598267,178.475098,47.793243,750.857849,6.559954,16.929005,748.493469,-33.162167,-27.234915,729.608215,-54.329212,-81.075752
863,0,740.674561,178.413269,47.659954,750.967590,6.548799,16.545595,748.566040,-33.011597,-27.813885,729.482056,-53.955814,-81.713928
864,0,740.735291,178.356216,47.508038,751.004395,6.527431,16.078318,748.496155,-32.903824,-28.394463,729.330872,-53.701763,-82.276382
865,0,740.845703,178.290771,47.343658,751.037231,6.529619,15.661033,748.334839,-32.801300,-28.965813,729.174194,-53.445019,-82.792061
866,0,740.928040,178.212646,47.153606,751.006714,6.534118,15.293447,748.229248,-32.720394,-29.406517,728.826721,-53.226334,-83.262672
867,0,741.060181,178.187744,47.029049,751.012146,6.541719,14.927765,748.088196,-32.659321,-29.781027,728.529724,-53.097317,-83.598473
868,0,741.070740,178.064667,46.812252,751.092834,6.559404,14.674271,747.949951,-32.603355,-30.080681,728.155334,-52.932606,-83.867249
869,0,741.193848,178.051254,46.721222,751.128418,6.565685,14.419703,747.875122,-32.582325,-30.334358,727.841797,-52.859818,-84.076385
870,0,741.214783,178.032501,46.645874,751.132629,6.531815,14.262146,747.819763,-32.581547,-30.483196,727.700867,-52.799843,-84.225990
871,0,741.296082,178.064041,46.689701,751.154907,6.535945,14.162824,747.780396,-32.572590,-30.584179,727.670532,-52.828709,-84.320480
872,0,741.288147,178.049530,46.683025,751.145874,6.506643,14.114372,747.845154,-32.597904,-30.660765,727.742493,-52.879372,-84.342110
873,0,741.280273,178.030258,46.689884,751.189697,6.464199,14.032404,747.924866,-32.620228,-30.678856,727.863953,-52.955002,-84.341408
874,0,741.247192,177.997269,46.642696,751.251831,6.452803,14.062695,748.002258,-32.647411,-30.677668,727.882019,-53.044899,-84.289558
875,0,741.317261,177.987411,46.659225,751.308533,6.440660,14.083557,748.010376,-32.661274,-30.608503,727.866150,-53.120216,-84.235901
876,0,741.352539,177.900253,46.558617,751.330505,6.444406,14.144046,748.013184,-32.659485,-30.577026,727.874207,-53.166531,-84.115982
877,0,741.481506,177.940704,46.610470,751.386047,6.467088,14.193965,747.999146,-32.675472,-30.481138,727.729004,-53.202415,-83.996529
878,0,741.632629,177.966751,46.643055,751.438843,6.493314,14.261248,747.917053,-32.651791,-30.386213,727.583313,-53.275658,-83.852913
879,0,741.769958,177.969055,46.647652,751.466492,6.532012,14.264476,747.830933,-32.619236,-30.352943,727.392822,-53.322517,-83.698410
880,0,741.938538,177.883774,46.610172,751.483398,6.572826,14.248165,747.788513,-32.621746,-30.289040,727.171265,-53.435829,-83.554291
881,0,742.026367,177.920563,46.643688,751.531616,6.652504,14.240474,747.688293,-32.585632,-30.271080,726.976135,-53.548893,-83.377678
882,0,742.141602,177.936646,46.658463,751.600891,6.710919,14.182711,747.547668,-32.529922,-30.280472,726.711304,-53.668110,-83.235825
883,0,742.243164,178.066208,46.748215,751.578125,6.795658,14.041952,747.371704,-32.419273,-30.340210,726.418579,-53.796814,-83.131020
884,0,742.389221,178.080307,46.793488,751.508667,6.909963,13.884829,747.221008,-32.290279,-30.450653,726.171448,-54.019150,-82.996445
885,0,742.618713,178.187164,46.942543,751.448975,7.028307,13.664171,746.923462,-32.132103,-30.565783,725.828979,-54.170048,-82.910378
886,0,742.680481,178.195465,47.026989,751.347107,7.147864,13.421968,746.623047,-31.947561,-30.750816,725.495056,-54.386330,-82.803314
887,0,742.711426,178.163971,47.091488,751.262634,7.260373,13.154031,746.308716,-31.749241,-30.945940,725.114563,-54.614952,-82.712456
888,0,742.720520,178.139679,47.140320,751.227844,7.346592,12.826782,746.042847,-31.572044,-31.182144,724.845520,-54.870872,-82.556564
889,0,742.748047,178.161362,47.228081,751.227539,7.468926,12.553667,745.844238,-31.362339,-31.402298,724.629395,-55.139065,-82.414848
890,0,742.832092,178.140945,47.272449,751.270874,7.618987,12.297668,745.722839,-31.183722,-31.567375,724.554810,-55.451576,-82.244888
891,0,742.918396,178.138535,47.307594,751.280396,7.758544,11.999085,745.703430,-30.978535,-31.727482,724.491333,-55.753204,-82.105858
892,0,742.977234,178.125626,47.303165,751.245361,7.882374,11.731374,745.652222,-30.764404,-31.912725,724.563110,-56.048256,-81.949654
893,0,743.024841,178.121948,47.401661,751.175842,8.029509,11.502284,745.529114,-30.541998,-32.078362,724.612305,-56.337219,-81.822830
894,0,742.961426,178.116974,47.459805,751.056030,8.170120,11.225116,745.457458,-30.332415,-32.267681,724.792908,-56.639542,-81.650795
895,0,743.011658,178.107315,47.557972,751.032166,8.285741,10.988877,745.375854,-30.131874,-32.440559,724.890625,-56.925713,-81.530838
896,0,743.059998,178.074524,47.611420,750.989258,8.423238,10.712689,745.296143,-29.911911,-32.585552,725.005310,-57.154881,-81.432121
897,0,743.132324,178.045349,47.651543,751.096313,8.524373,10.444790,745.305542,-29.734770,-32.758892,725.041077,-57.344650,-81.266762
898,0,743.256409,178.068069,47.710842,751.186646,8.681844,10.183609,745.298096,-29.531979,-32.902328,725.036743,-57.517353,-81.120422
899,0,743.375061,178.079269,47.727665,751.337524,8.810946,9.986540,745.419861,-29.392282,-33.000122,725.147034,-57.678383,-80.976349
900,0,743.514282,178.062393,47.737911,751.444824,8.869773,9.867077,745.473450,-29.243542,-33.070740,725.268066,-57.784855,-80.917213
