Trajectories
100
,,Sano:Wrist,,,Sano:MPH3,,,Sano:PIP3,,,Sano:DIP3,,,
Frame,Sub Frame,X,Y,Z,X,Y,Z,X,Y,Z,X,Y,Z
,,mm,mm,mm,mm,mm,mm,mm,mm,mm,mm,mm,mm
1,0,-145.108856,113.084000,43.762550,-13.203855,69.552391,74.157639,41.694504,43.059101,70.834984,65.851151,8.686434,17.350924
2,0,-145.116562,113.054367,43.684513,-13.219978,69.602753,74.129471,41.688744,43.098053,70.800034,65.839294,8.702295,17.340752
3,0,-145.133057,113.042358,43.669292,-13.231977,69.647034,74.096848,41.670628,43.165150,70.781570,65.773659,8.779682,17.380737
4,0,-145.125946,113.082108,43.585587,-13.304150,69.723488,74.059540,41.643330,43.261192,70.753784,65.800102,8.831431,17.372782
5,0,-145.154724,113.127678,43.525856,-13.279452,69.763039,74.000984,41.686573,43.379410,70.706985,65.830452,8.857023,17.380072
6,0,-145.179520,113.101669,43.466866,-13.333851,69.787910,73.917580,41.658108,43.503036,70.645294,65.839157,8.873503,17.406540
7,0,-145.173889,113.097740,43.443512,-13.326905,69.835381,73.849007,41.697983,43.594112,70.617134,65.907234,8.804280,17.429365
8,0,-145.177002,113.117012,43.400478,-13.330725,69.884018,73.788177,41.721428,43.721268,70.551643,65.927719,8.901324,17.428623
9,0,-145.259140,113.152977,43.371006,-13.308733,69.926353,73.722313,41.776093,43.846394,70.531334,65.891403,9.052210,17.404755
10,0,-145.277786,113.125130,43.338352,-13.314211,69.949257,73.682076,41.805225,43.955067,70.456047,65.998726,9.021201,17.472717
11,0,-145.269379,113.113686,43.304966,-13.325612,69.932304,73.677917,41.801071,44.029076,70.465355,66.148621,8.736521,17.515030
12,0,-145.261444,113.112953,43.290318,-13.387176,69.915222,73.674019,41.767601,44.021725,70.453415,65.915726,9.208117,17.437906
13,0,-145.306839,113.137337,43.243679,-13.424727,69.899399,73.671448,41.707699,43.965714,70.487068,65.963287,9.119308,17.465233
14,0,-145.318268,113.147263,43.266422,-13.415750,69.887909,73.668312,41.704948,43.972240,70.481407,65.983154,9.018693,17.478899
15,0,-145.363770,113.100655,43.275867,-13.455653,69.881691,73.649544,41.689301,43.954456,70.486008,65.971680,8.929979,17.488152
16,0,-145.378937,113.082108,43.225391,-13.431645,69.897377,73.637932,41.679436,43.935020,70.470963,65.897842,9.082672,17.451712
17,0,-145.396774,113.102219,43.246189,-13.470579,69.928772,73.624954,41.663673,43.920540,70.482048,65.985489,8.887984,17.509830
18,0,-145.393463,113.106628,43.209373,-13.464990,69.954163,73.608459,41.599571,43.953392,70.491882,65.990280,8.841511,17.510477
19,0,-145.386078,113.088509,43.213715,-13.467684,69.968033,73.598862,41.637012,43.990997,70.451019,65.915482,8.993484,17.486324
20,0,-145.422501,113.111595,43.140121,-13.462341,69.984215,73.557831,41.637386,44.039761,70.427315,66.037704,8.849024,17.482994
21,0,-145.376587,113.101753,43.103252,-13.461937,70.004791,73.514740,41.640602,44.108509,70.412285,66.017174,8.975036,17.469427
22,0,-145.326675,113.080383,43.097660,-13.449134,70.042542,73.484894,41.705112,44.205040,70.374649,65.950195,9.210245,17.430807
23,0,-145.333176,113.065300,43.065891,-13.446454,70.077675,73.444283,41.751305,44.288532,70.308525,66.154655,8.816370,17.491522
24,0,-145.290421,113.053688,43.024700,-13.417625,70.091324,73.425652,41.807732,44.403866,70.235733,65.958908,9.294574,17.405958
25,0,-145.293091,113.054398,43.032562,-13.388313,70.106346,73.412163,41.850174,44.485291,70.223816,66.116074,9.169543,17.418001
26,0,-145.288544,113.104736,43.015659,-13.334419,70.159203,73.400612,41.946953,44.567501,70.208496,66.092506,9.325577,17.417471
27,0,-145.274033,113.116249,43.016438,-13.310677,70.204575,73.385345,41.976337,44.609669,70.197586,66.075371,9.310164,17.393856
28,0,-145.290909,113.082428,43.041985,-13.295375,70.223656,73.383232,41.991669,44.612255,70.194054,65.994583,9.474841,17.328764
29,0,-145.300674,113.097168,43.021126,-13.257738,70.259789,73.391968,42.055634,44.635513,70.181839,66.059792,9.354834,17.383177
30,0,-145.302979,113.112350,43.034122,-13.248424,70.268097,73.390320,42.049984,44.656319,70.182472,65.995552,9.472553,17.360577
31,0,-145.282471,113.135513,43.024677,-13.265535,70.333298,73.339935,42.037792,44.685760,70.169670,66.031822,9.383491,17.373285
32,0,-145.285049,113.130959,42.997749,-13.284167,70.368607,73.305977,42.019821,44.726730,70.138924,66.023239,9.405551,17.370806
33,0,-145.304626,113.173630,42.945942,-13.274574,70.380600,73.304817,42.026558,44.788586,70.119049,65.976959,9.458190,17.394564
34,0,-145.279770,113.203636,42.886318,-13.310672,70.473389,73.245720,41.978722,44.850803,70.116661,65.954163,9.534703,17.384125
35,0,-145.281616,113.219101,42.827076,-13.315803,70.511063,73.221275,41.967373,44.882782,70.090210,65.959305,9.528151,17.379501
36,0,-145.350586,113.234520,42.754353,-13.388081,70.542259,73.169144,41.949787,44.968811,70.060135,65.917595,9.638184,17.365240
37,0,-145.359360,113.230453,42.694733,-13.398872,70.561440,73.113586,41.953842,45.011189,69.989990,65.906769,9.704326,17.350979
38,0,-145.374939,113.235596,42.667500,-13.412685,70.568550,73.065147,41.961887,45.054134,69.992050,65.929489,9.674653,17.370434
39,0,-145.358673,113.205894,42.589783,-13.448318,70.584709,73.023041,41.908592,45.123207,69.944466,65.976395,9.618334,17.373459
40,0,-145.432144,113.235565,42.583611,-13.497632,70.575470,72.956261,41.920223,45.132816,69.935219,65.943069,9.689105,17.354933
41,0,-145.440109,113.157166,42.564121,-13.510337,70.561836,72.941765,41.931877,45.157169,69.933716,66.008980,9.574738,17.381632
42,0,-145.493958,113.148865,42.509129,-13.517451,70.537094,72.917946,41.914497,45.167480,69.916946,65.943092,9.701601,17.342184
43,0,-145.505905,113.180511,42.499603,-13.560693,70.533936,72.882378,41.909431,45.202442,69.918549,65.981071,9.682049,17.335733
44,0,-145.514221,113.173866,42.484840,-13.577795,70.551453,72.831383,41.889938,45.256901,69.894783,65.998093,9.644918,17.346928
45,0,-145.499710,113.168243,42.415012,-13.591990,70.568268,72.803825,41.910091,45.311222,69.836983,66.056137,9.584723,17.373604
46,0,-145.509705,113.171265,42.363831,-13.586267,70.638771,72.720627,41.934818,45.340752,69.816536,65.991035,9.664425,17.339165
47,0,-145.496780,113.207909,42.328793,-13.566578,70.678154,72.702644,41.935066,45.386715,69.797356,66.090195,9.514210,17.370699
48,0,-145.500183,113.209549,42.301624,-13.612888,70.707680,72.612633,41.920433,45.483608,69.740257,65.954201,9.777208,17.300797
49,0,-145.547699,113.220924,42.244003,-13.534576,70.786774,72.575714,41.959591,45.552204,69.699501,65.978882,9.768148,17.325043
50,0,-145.500259,113.233742,42.188389,-13.541786,70.849075,72.531578,41.970657,45.610218,69.678337,66.007370,9.820815,17.319242
51,0,-145.516388,113.252548,42.177399,-13.589663,70.864304,72.470291,41.959511,45.633739,69.675537,66.023087,9.813157,17.277428
52,0,-145.524658,113.270157,42.136574,-13.607976,70.874443,72.464363,41.960159,45.649166,69.658127,66.015434,9.778193,17.320837
53,0,-145.545441,113.258118,42.088478,-13.655686,70.924118,72.421524,41.927345,45.672230,69.658043,65.963097,9.802961,17.314156
54,0,-145.570618,113.251404,42.029877,-13.688317,70.948730,72.379478,41.892448,45.693287,69.624214,65.966171,9.765617,17.317051
55,0,-145.566437,113.239883,41.955128,-13.700348,70.981171,72.291893,41.889317,45.732449,69.613045,65.922142,9.880241,17.292965
56,0,-145.624405,113.243736,41.906528,-13.719739,71.003746,72.233032,41.882587,45.779461,69.539398,65.934174,9.828639,17.313284
57,0,-145.629059,113.227623,41.847771,-13.786817,71.021721,72.173584,41.815060,45.817059,69.539032,66.059875,9.589114,17.356819
58,0,-145.675034,113.248535,41.797699,-13.815156,71.054443,72.106743,41.826298,45.834518,69.507690,66.043358,9.683806,17.345095
59,0,-145.685669,113.247650,41.726807,-13.882856,71.103149,72.075989,41.806438,45.849251,69.499275,65.902504,9.959552,17.287384
60,0,-145.761810,113.270493,41.682159,-13.903116,71.076920,72.021729,41.744419,45.830349,69.485764,66.108864,9.523155,17.385063
61,0,-145.750244,113.263023,41.603127,-13.920588,71.095856,71.975578,41.725853,45.847904,69.465370,65.874733,9.961740,17.274359
62,0,-145.756012,113.233704,41.586124,-13.860987,71.086823,71.851189,41.695995,45.876446,69.448051,65.941437,9.853924,17.313768
63,0,-145.763046,113.240982,41.501831,-13.831686,71.124557,71.799461,41.696453,45.954865,69.395599,66.075287,9.580386,17.340687
64,0,-145.789993,113.272102,41.465431,-13.836520,71.123314,71.710953,41.721897,45.996735,69.359024,66.100044,9.555913,17.322355
65,0,-145.742523,113.295708,41.356049,-13.882246,71.152611,71.634148,41.721275,46.034660,69.286667,66.198502,9.428437,17.383316
66,0,-145.739960,113.354996,41.311203,-13.912976,71.181152,71.553505,41.735401,46.134991,69.247093,66.137436,9.504089,17.340387
67,0,-145.766968,113.405830,41.298161,-13.979227,71.200546,71.536377,41.726990,46.191509,69.203232,66.122688,9.569478,17.322342
68,0,-145.735748,113.423531,41.205383,-13.995070,71.250465,71.469536,41.711182,46.277660,69.187897,66.059326,9.805176,17.257769
69,0,-145.735977,113.510620,41.147350,-13.986684,71.285652,71.392090,41.681099,46.328926,69.135963,66.225189,9.482399,17.349937
70,0,-145.743423,113.589188,41.086071,-14.008636,71.345329,71.315643,41.689491,46.409657,69.084030,65.949348,10.089584,17.233797
71,0,-145.776031,113.697342,41.039349,-14.019118,71.401405,71.257721,41.667522,46.505989,69.041710,66.213692,9.516461,17.343210
72,0,-145.767807,113.782906,41.027397,-14.021608,71.467239,71.191948,41.669239,46.559528,69.012657,65.927696,10.158820,17.219698
73,0,-145.750916,113.848488,40.936749,-14.040275,71.545258,71.139702,41.672626,46.572105,68.986855,66.212723,9.620083,17.351976
74,0,-145.752762,113.953987,40.880127,-14.086550,71.589752,71.074272,41.625977,46.610359,68.945152,65.689651,10.687329,17.105227
75,0,-145.767990,114.062119,40.849670,-14.079715,71.646194,71.029205,41.617203,46.651505,68.943253,65.686562,10.693288,17.091604
76,0,-145.734756,114.170547,40.788002,-14.087985,71.667946,70.977158,41.632576,46.652332,68.919685,65.671089,10.700723,17.041851
77,0,-145.667160,114.183739,40.797127,-14.039476,71.648735,70.966957,41.644833,46.634956,68.885994,65.742004,10.685775,17.028896
78,0,-145.544205,114.137413,40.741966,-14.031950,71.659134,70.918297,41.731632,46.613434,68.870773,65.784248,10.685908,17.002831
79,0,-145.444183,114.177650,40.757793,-13.927834,71.627213,70.881706,41.812740,46.597183,68.890335,65.825485,10.632731,16.934832
80,0,-145.393692,114.185394,40.798153,-13.819336,71.592072,70.911713,41.935425,46.541683,68.914223,65.944298,10.625174,16.921974
81,0,-145.224457,114.164177,40.993515,-13.648998,71.526093,70.987259,42.145321,46.486725,68.925552,66.049149,10.574773,16.858885
82,0,-145.155075,114.182304,41.388981,-13.367970,71.352867,71.219292,42.376026,46.369427,68.994843,66.127701,10.558557,16.778185
83,0,-145.016510,114.233177,42.028522,-12.965585,71.126762,71.718246,42.784348,46.126308,69.199867,66.246964,10.475982,16.681578
84,0,-144.909225,114.424438,42.991615,-12.384137,70.736061,72.589325,43.369999,45.711292,69.523293,66.365662,10.362274,16.594021
85,0,-144.892776,114.793884,44.348183,-11.406686,70.402046,73.897629,44.157597,45.182384,70.014038,66.460945,10.242260,16.489182
86,0,-144.732285,115.194664,46.106678,-10.137964,70.066368,75.624275,45.143559,44.537399,70.618019,66.538948,10.046791,16.468845
87,0,-144.550888,115.720490,48.259472,-8.648439,69.832817,77.741333,46.406219,43.929489,71.320053,66.617882,9.928243,16.557016
88,0,-144.439789,116.391884,50.706867,-6.767295,69.930275,80.235550,47.890350,43.615505,72.360184,66.755066,9.806506,17.113050
89,0,-143.867935,117.144394,53.436470,-4.862334,70.260063,83.138496,49.515900,43.646515,73.929695,67.302872,9.906176,18.349529
90,0,-143.113342,118.115227,56.388134,-2.670786,70.872147,86.396774,51.354286,43.916473,76.279480,68.495880,9.787015,20.610971
91,0,-141.950867,119.167847,59.306816,-0.450879,71.600731,90.327080,53.163319,44.359623,79.458099,70.293434,10.072025,23.812975
92,0,-140.497070,120.392197,62.554539,1.874339,72.850967,94.353836,55.211758,45.293961,83.542778,72.392586,11.392653,27.868137
93,0,-138.615387,121.726524,65.872566,3.911439,74.396042,98.663452,57.553455,46.874981,88.412605,75.353569,12.912358,33.055180
94,0,-136.393707,123.234550,69.440170,6.318493,76.292206,103.566467,60.137352,48.920364,94.012009,79.075676,14.705939,39.125839
95,0,-133.643066,124.733803,72.982162,9.099934,78.414352,108.723732,63.057453,51.317791,100.138863,83.092400,16.858896,45.693962
96,0,-131.264862,127.064941,76.815689,12.170589,80.779488,114.038834,66.374420,54.050133,106.518143,87.672371,19.367416,52.660027
97,0,-127.545120,127.981720,81.110474,15.609499,83.410789,119.507828,70.100853,57.127598,112.927643,92.634567,22.143682,59.814003
98,0,-123.984322,129.904388,85.032997,19.286736,86.317192,124.920036,74.007149,60.431396,119.354744,97.873657,25.255743,66.876846
99,0,-120.118347,132.258087,89.190102,23.777369,89.490829,130.262268,78.308945,63.992947,125.649155,103.467857,28.600283,73.838844
100,0,-116.099716,135.218124,93.402336,28.328484,92.909012,135.532806,83.083855,67.751915,131.832230,109.506516,32.197353,80.694107
101,0,-111.442413,137.168350,97.371544,33.288025,96.504478,140.610779,88.257973,71.852188,137.685577,115.761795,36.249546,87.045662
102,0,-106.239433,139.384171,101.002876,38.537716,100.169342,145.435272,93.862228,76.185143,143.232880,122.524628,40.488491,93.218674
103,0,-100.718147,142.057861,104.981468,44.333538,103.924576,149.909286,99.883659,80.662170,148.415146,129.726120,45.037170,98.967293
104,0,-94.762581,144.555115,108.830452,50.454521,107.515800,154.003464,106.221619,85.081680,153.068329,137.388519,49.833496,104.115997
105,0,-88.401924,146.999542,112.485275,57.028820,110.929756,157.759644,112.952301,89.328308,157.188095,145.361450,54.703281,108.667793
106,0,-81.894936,149.468063,116.167610,63.853333,114.306122,161.235107,119.968735,93.459038,160.759003,153.731277,59.553112,112.523865
107,0,-75.273369,151.786743,119.870392,70.938560,117.560158,164.345551,127.313553,97.441444,163.698334,162.089462,64.637291,115.340973
108,0,-68.548073,153.983017,123.409454,78.396774,120.603180,167.053665,134.932602,101.398933,166.092819,170.505249,69.726845,117.566002
109,0,-61.942245,156.186615,126.728416,85.988190,123.619965,169.434570,142.752533,105.412193,168.024811,179.060196,74.763802,119.461823
110,0,-55.258289,158.359024,129.870819,93.538696,126.705078,171.421417,150.654572,109.489319,169.546127,187.569534,79.803741,120.951164
111,0,-48.519947,160.517670,132.811417,101.292274,129.794098,173.124130,158.670227,113.549469,170.843018,195.970917,84.413353,122.506935
112,0,-41.568672,162.601501,135.487213,108.790405,132.826981,174.544144,166.382736,117.335365,172.022217,204.585709,88.962090,123.826599
113,0,-34.707306,164.773453,137.812378,116.465088,135.793961,175.596863,173.965057,120.996361,173.045731,212.623047,93.361435,124.870689
114,0,-27.588310,166.867188,139.999069,123.853149,138.682312,176.419083,181.494308,124.524307,173.757080,220.430450,97.469460,125.607788
115,0,-20.501423,168.972931,141.938690,131.305283,141.430222,176.920258,188.900497,127.806824,174.157455,228.252151,101.220970,126.026260
116,0,-13.500992,171.019058,143.626968,138.422028,143.994919,177.133698,196.173157,130.876434,174.204575,235.692780,104.566307,126.072365
117,0,-6.728325,172.927765,145.164398,146.165009,146.320419,177.077652,203.467392,133.626160,173.993790,242.848114,108.117622,125.557289
118,0,0.150616,174.532349,146.472580,153.235382,148.446075,176.815353,210.522675,136.228546,173.366638,250.234131,110.979706,124.806625
119,0,6.592455,175.969513,147.455048,160.138702,150.347015,176.403732,217.444260,138.555893,172.391205,257.126678,113.827820,123.687752
120,0,12.652870,177.333054,148.659866,166.964615,152.116425,175.890213,224.440750,140.567429,171.342331,263.869324,116.661934,122.238091
121,0,18.552872,178.448837,149.532913,173.529495,153.794495,175.156525,230.881058,142.655060,170.052582,270.328430,119.690857,120.523575
122,0,24.031096,179.472809,150.406418,179.739655,155.222824,174.519531,237.185730,144.678986,168.728882,276.359009,122.352989,118.811974
123,0,29.560915,180.351059,150.858902,185.594162,156.483017,173.940781,242.994720,146.486862,167.612625,282.156036,124.820480,117.269577
124,0,34.651737,181.139694,151.234512,191.246368,157.565628,173.427032,248.599533,148.095428,166.586288,287.586639,126.982208,115.886436
125,0,39.615627,181.861343,151.392792,196.644135,158.549057,172.823349,253.997055,149.436020,165.795807,292.906860,128.670715,114.906525
126,0,44.585003,182.476212,151.341461,201.772736,159.421127,172.213806,259.096222,150.494263,165.116943,298.059845,129.906677,114.154877
127,0,49.447620,183.136230,151.082825,206.757019,160.218094,171.464706,264.008453,151.330627,164.423660,303.008820,130.706604,113.482506
128,0,54.239670,183.701477,150.684036,211.498917,161.085190,170.384613,268.852448,151.949738,163.537460,307.922943,131.210297,112.690155
129,0,59.119118,184.271820,150.134506,216.288971,161.903732,169.133041,273.563446,152.552856,162.394821,312.567810,131.557159,111.644905
130,0,63.814709,184.768738,149.538773,221.078293,162.723404,167.628387,278.352844,153.105377,160.892166,317.236633,132.014816,110.063530
131,0,68.278511,185.155289,148.899368,225.804382,163.394272,165.818848,282.852692,153.745270,158.881653,321.829010,132.737518,108.060921
132,0,72.606400,185.435150,148.222565,230.465561,163.823349,163.726669,287.453430,154.542191,156.462830,326.292023,133.910812,105.506737
133,0,76.469460,185.580048,147.610458,235.060867,164.009491,161.407455,291.876953,155.410599,153.691849,330.796051,135.347992,102.463608
134,0,80.051506,185.613129,146.865845,239.453964,164.078506,158.962570,296.100281,156.323563,150.551636,334.956573,136.869446,99.084244
135,0,83.529747,185.518570,145.945877,243.656952,164.182312,156.469406,300.078552,157.176147,147.280640,338.732544,138.374924,95.324005
136,0,86.822906,185.450027,144.955261,247.594284,164.364243,153.835693,303.881836,157.869415,144.053864,342.139984,139.481979,91.598274
137,0,89.852104,185.542160,143.803375,251.252289,164.593140,151.297287,307.341187,158.410706,140.811478,345.126465,140.322388,88.005859
138,0,92.812469,185.734756,142.566299,254.796738,164.719162,148.765915,310.502594,158.792816,137.704086,347.811279,140.680115,84.720276
139,0,95.829948,185.929428,141.315903,257.815155,165.138199,146.264481,313.361084,159.061951,134.762817,350.257996,141.060867,81.352982
140,0,98.010513,186.266068,140.044876,260.601746,165.518570,143.791199,315.920410,159.389725,131.808609,352.528900,141.465851,78.134575
141,0,100.319061,186.500580,138.712051,263.141876,165.845215,141.413956,318.376282,159.797684,128.986511,354.505066,141.935745,74.989632
142,0,102.537659,186.596375,137.209549,265.472290,166.170425,139.108093,320.455811,160.288223,126.105873,356.281830,142.537827,71.892410
143,0,104.283638,186.634384,135.928024,267.510101,166.425018,136.944138,322.462463,160.811569,123.389679,357.796326,143.231888,68.866348
144,0,105.827408,186.661209,134.531525,269.307526,166.671448,134.829010,324.089600,161.268173,120.688210,358.970947,143.822998,65.856567
145,0,107.235794,186.701447,133.146698,270.938446,166.776062,132.948822,325.593079,161.591003,118.211655,359.777435,144.279419,62.952324
146,0,108.143028,186.831482,131.651749,272.243042,167.021759,131.214798,326.713501,161.884247,115.843147,360.052795,144.525986,60.005554
147,0,109.071777,186.999283,130.149368,273.566193,167.498337,129.897827,327.941406,162.095123,113.602608,359.763519,144.569733,56.856678
148,0,109.864136,187.224167,128.589981,274.545898,168.027451,128.646164,328.816895,162.191269,111.310844,358.564606,144.439819,53.499302
149,0,110.515015,187.581192,127.025467,275.326996,168.472748,127.573700,329.395660,162.271088,108.859894,356.422791,144.355759,49.703457
150,0,110.939621,187.906738,125.449760,275.774139,168.795059,126.678764,329.778687,162.190262,106.502144,353.654236,144.398819,46.015648
151,0,111.162918,188.262329,123.809769,275.808167,169.501022,126.105186,329.920959,162.190659,104.959412,352.795776,143.804550,44.508438
152,0,111.218559,188.524078,122.205917,275.495697,169.691605,125.696404,329.786499,162.112900,105.579422,352.646606,143.763550,44.893265
153,0,111.236313,188.725174,120.800446,275.115723,169.865219,125.526489,329.601929,162.135269,105.810364,352.274536,143.381500,45.059032
154,0,111.260818,189.005692,119.525024,274.903687,170.378250,125.246864,329.390656,162.147278,105.666626,351.948395,142.837463,45.023354
155,0,111.240219,189.403793,118.433899,274.775299,170.843704,124.891090,329.179138,162.111588,105.465729,351.834595,142.672623,44.872604
156,0,111.169769,189.872620,117.467857,274.701965,171.665726,124.498047,328.937897,162.629669,105.160576,351.778809,142.716476,44.743313
157,0,111.116951,190.320648,116.612022,274.674927,172.542511,124.064377,328.937805,163.600098,104.713875,351.863770,142.929642,44.618385
158,0,111.029732,190.807205,115.858307,274.627441,173.399841,123.574448,328.954834,164.477722,104.323563,351.927551,143.083954,44.470592
159,0,111.053940,191.274277,115.185455,274.520996,173.971909,123.144600,328.910583,165.045792,103.998367,352.035339,143.165924,44.333046
160,0,111.029068,191.571686,114.525932,273.876373,174.617691,122.585754,328.833588,165.348511,103.675102,352.117828,143.150833,44.162563
161,0,110.953896,191.713943,113.896454,273.603699,174.667267,121.936325,328.681824,165.347366,103.393036,352.200989,143.075897,44.000675
162,0,110.981804,191.714706,113.215202,273.366882,174.609543,121.337242,328.546570,165.376465,103.095345,352.246490,143.105148,43.776463
163,0,110.919579,191.626038,112.550720,273.247955,174.657166,120.782722,328.464355,165.580322,102.793419,352.322693,143.179565,43.590141
164,0,110.981270,191.529907,111.892776,273.047211,174.796860,120.134087,328.407166,166.006241,102.448372,352.429840,143.498474,43.339016
165,0,111.016403,191.495117,111.207603,272.859802,175.009628,119.392349,328.457336,166.590805,102.128067,352.454346,144.072937,43.091896
166,0,111.147308,191.487411,110.420128,272.712860,175.069153,118.547279,328.477417,167.096954,101.767380,352.661102,144.352509,42.874237
167,0,111.230637,191.459778,109.664375,272.489716,175.057190,117.617744,328.529602,167.533615,101.406898,352.847229,144.576157,42.628525
168,0,111.431183,191.299637,108.811745,272.308014,174.903488,116.619125,328.549500,167.630310,101.005470,353.015045,144.680588,42.304302
169,0,111.759842,191.192459,108.028641,272.331085,174.683289,115.689621,328.676300,167.654968,100.735077,353.159790,144.688965,41.991173
170,0,112.341560,191.084564,107.236465,272.400879,174.514206,114.816887,328.867859,167.559845,100.530426,353.253235,144.587036,41.726894
171,0,113.088371,191.036133,106.498993,272.558594,174.433151,114.022133,329.164185,167.551453,100.339981,353.374268,144.523758,41.469933
172,0,114.031250,191.160660,105.827515,272.723511,174.490067,113.419266,329.470215,167.496490,100.268600,353.432129,144.422684,41.299847
173,0,114.877693,191.264832,105.456917,273.009308,174.755844,112.985641,329.825623,167.577194,100.219345,353.476013,144.301529,41.185768
174,0,115.852798,191.452652,105.286514,273.358307,175.252472,112.816689,330.363586,167.930542,100.178001,353.510895,144.278503,41.087082
175,0,116.577881,191.733887,105.480705,273.859344,176.090775,112.857361,330.932343,168.583191,100.138336,353.584412,144.361923,41.063602
176,0,117.054062,192.134781,105.977196,274.504089,176.955215,113.383339,331.492798,169.434387,100.183693,353.618347,144.533127,41.169796
177,0,117.533813,192.579712,106.752579,274.996216,177.765366,114.228279,331.949219,170.155930,100.472786,353.493805,144.758560,41.463638
178,0,117.669647,192.983658,107.761688,275.087097,178.358551,115.520821,332.249237,170.690887,101.457672,353.008331,144.953995,42.306026
179,0,117.533455,193.368683,108.899132,274.874237,178.834595,117.266174,332.037933,171.065430,103.140831,352.131256,144.810349,43.985119
180,0,117.417381,193.626007,110.175797,274.262787,179.122116,119.380493,331.722198,171.199814,105.245346,350.936188,144.470184,45.920708
181,0,116.915230,193.771042,111.626045,273.487457,179.201080,121.602158,330.822174,171.039810,107.910812,350.215302,144.312195,48.645370
182,0,115.946251,193.872330,113.183510,272.161163,179.458130,124.278397,329.700409,171.014740,111.159248,349.307373,143.928131,52.161057
183,0,114.645042,194.002258,114.917557,270.711914,179.761292,127.376556,328.216949,171.196198,114.394226,347.405457,142.861984,56.050781
184,0,112.943436,194.171585,116.722389,268.656555,180.176422,130.889862,326.205444,170.834900,118.444733,345.393097,142.534943,59.968864
185,0,110.685913,194.312592,118.666748,266.017365,180.374512,134.734558,323.685242,170.525604,123.036766,343.352264,142.120117,64.811981
186,0,107.958199,194.515747,120.784241,262.956421,180.391678,138.677628,320.724701,170.438034,127.928825,341.164490,141.402100,70.152527
187,0,104.762421,194.666336,122.877785,259.576813,180.445572,142.598572,317.225922,170.237640,133.066162,338.611694,140.812805,75.699883
188,0,101.353867,194.875137,124.895737,255.733765,180.586090,146.423309,313.390747,169.762299,138.108261,335.262115,140.245071,81.132553
189,0,97.127800,195.132706,127.036407,251.514282,180.751328,150.159958,309.179199,169.459976,142.665726,331.776978,139.521805,86.097382
190,0,93.514305,195.335678,129.087128,247.231796,181.036224,153.704376,304.921997,169.192917,146.764023,327.868713,138.685379,90.651199
191,0,88.855209,195.898544,130.866592,242.823776,181.399841,157.160095,300.249481,169.068115,150.325378,323.597351,138.073746,94.633324
192,0,84.000320,196.466034,132.703888,238.030319,181.837845,160.219559,295.546234,169.114441,153.444748,318.554871,137.719147,97.901886
193,0,78.898010,197.111328,134.220703,233.013870,182.427261,163.045258,290.458710,169.339020,156.232864,313.103790,137.723511,100.694221
194,0,73.449173,197.863953,135.488968,227.536926,183.015594,165.708313,284.970184,169.648712,158.795578,307.313507,137.682983,103.281433
195,0,68.015930,198.657654,136.212418,221.667938,183.638763,167.981735,279.160980,169.771484,161.264969,301.203400,137.527405,105.883553
196,0,62.057674,199.555084,137.139297,215.465683,184.186523,170.004333,273.002441,169.851959,163.599487,294.882538,137.210434,108.412338
197,0,56.060089,200.439392,137.368622,208.946396,184.646408,171.727234,266.596863,169.889709,165.771179,288.292145,136.953430,110.472519
198,0,49.541710,201.355423,137.766754,202.414413,185.084869,173.010254,259.910889,169.986557,167.630280,281.524048,136.809814,112.251877
199,0,43.124821,202.271545,137.780472,195.797806,185.666702,174.036911,253.392075,170.020294,169.051437,275.134552,136.810364,113.763916
200,0,36.341419,203.317078,137.547470,189.178986,186.402145,174.683563,246.754166,170.266815,170.252075,268.495697,137.003326,114.973175
201,0,29.856274,204.247498,137.107880,182.511230,187.359512,174.960815,239.675140,171.200928,171.130386,262.135223,137.648621,116.020119
202,0,23.477354,205.251617,136.402481,175.931412,188.409531,174.937073,232.975449,172.220108,171.620880,255.908249,138.170685,116.919601
203,0,17.021431,206.445099,135.425034,169.176041,189.507706,174.510498,226.188660,173.122864,171.770615,249.709503,138.351013,117.665596
204,0,10.746666,207.663544,134.360199,162.679535,190.567505,173.759064,219.529404,173.719513,171.779846,243.204361,138.892990,117.994217
205,0,4.476727,208.843674,133.199371,156.331314,191.573654,172.778656,213.097672,174.268051,171.353668,236.946396,139.257172,117.725868
206,0,-1.572279,210.105927,131.928879,150.212936,192.620377,171.482971,206.852219,174.940414,170.288940,230.697327,139.727493,116.761726
207,0,-7.341760,211.149277,130.443604,144.251251,193.705200,170.092422,200.733002,175.597900,168.937805,224.520035,140.524872,115.325424
208,0,-13.116114,212.243347,129.121002,138.553513,194.898376,168.602982,195.009644,176.535828,167.347931,218.609802,141.643738,113.574318
209,0,-18.925842,213.389404,127.934280,133.230576,196.163223,166.986588,189.520218,177.675308,165.541199,212.955917,142.968933,111.550003
210,0,-24.229210,214.430939,126.263977,127.582596,197.451004,165.181625,184.196335,178.955276,163.627075,207.610916,144.384247,109.551971
211,0,-29.501778,215.430969,124.991394,122.578651,198.590912,163.310822,179.146881,180.179718,161.664581,202.498840,145.670380,107.471298
212,0,-34.321163,216.287338,123.491325,117.500557,199.544022,161.394638,174.191437,181.081192,159.695862,197.347351,146.593002,105.416435
213,0,-39.112122,217.064926,122.042488,112.663483,200.190704,159.480118,169.234482,181.430984,157.710556,192.236420,147.104446,103.302582
214,0,-43.601444,217.602570,120.455086,107.992668,200.654663,157.581421,164.386063,181.477264,155.768417,187.395020,147.350693,101.139694
215,0,-48.151405,218.033310,119.192940,103.510674,201.024734,155.624496,159.792175,181.422729,153.715622,182.636520,147.480331,98.914299
216,0,-52.304829,218.390320,117.689560,98.909149,201.254837,153.809143,155.552948,181.413086,151.735565,178.053864,147.528687,96.855423
217,0,-56.422268,218.647980,116.338135,95.112305,201.423126,151.838470,151.270325,181.462753,149.755966,173.829834,147.358322,95.019775
218,0,-60.281654,218.896591,114.989227,91.238968,201.524460,150.066956,147.262421,181.314392,147.935654,169.940964,146.900299,93.393372
219,0,-63.893616,218.979019,113.904419,87.620941,201.332611,148.201065,143.583359,180.821274,146.269745,166.071381,146.245087,91.744240
220,0,-66.953125,219.062134,112.518440,84.252831,200.955978,146.464005,139.755173,180.069931,144.589966,162.446442,145.287720,90.140755
221,0,-70.014603,218.982727,111.511292,81.077011,200.448563,144.660812,136.490845,179.197021,142.923248,159.024597,144.357193,88.471901
222,0,-72.574364,218.849747,110.349182,78.333206,199.906662,143.014114,133.717590,178.266830,141.145737,155.877319,143.388718,86.657639
223,0,-74.968498,218.621536,109.116936,75.749916,199.376602,141.284531,131.169815,177.467041,139.327820,153.136017,142.594849,84.830635
224,0,-77.283310,218.319504,108.147438,73.450607,198.810349,139.646042,128.668259,176.772430,137.614868,150.510666,142.064804,82.882812
225,0,-79.226250,217.964813,106.984634,71.353844,198.300568,138.130051,126.596779,176.139954,136.036209,148.297104,141.633652,81.131752
226,0,-80.998161,217.675766,105.894424,69.393494,197.849792,136.481796,124.654213,175.742249,134.505203,146.464493,141.210999,79.618767
227,0,-82.389877,217.364395,104.741280,67.588966,197.408493,134.880707,122.957420,175.467377,132.963089,144.822769,140.798248,78.202347
228,0,-83.602905,217.123230,103.593956,66.261520,197.024368,133.201218,121.459984,175.139725,131.288162,143.463272,140.133331,76.795692
229,0,-84.736115,216.910126,102.459908,65.057671,196.742493,131.379150,120.153084,174.726273,129.576462,141.947113,139.528015,75.084831
230,0,-85.604523,216.794434,101.398026,63.878788,196.447845,129.639252,118.954964,174.276718,127.600327,140.646469,139.015045,73.173767
231,0,-86.531380,216.679474,100.269600,62.960407,196.162720,127.780319,117.879539,173.672119,125.539360,139.489960,138.748703,70.922127
232,0,-87.411034,216.608002,99.233810,62.216667,196.021042,126.057785,116.943459,173.196793,123.481651,138.345718,138.828720,68.345673
233,0,-88.276009,216.601898,98.261398,61.434490,195.976486,124.244560,116.185471,173.041168,121.129211,137.666321,139.262817,65.742912
234,0,-89.059731,216.622253,97.126976,60.863392,196.203903,122.505524,115.590622,173.280396,118.956650,137.084015,139.776489,63.303879
235,0,-89.608452,216.689606,96.046005,60.313915,196.594437,120.617859,115.065132,173.648743,116.763802,136.370758,140.407654,60.915993
236,0,-90.127151,216.981415,94.907440,59.928955,197.175385,118.743614,114.550400,174.285095,114.639565,135.929001,140.995926,58.865410
237,0,-90.570160,217.347168,93.713348,59.470871,197.845139,116.759109,114.213768,175.010071,112.592461,135.326645,141.614182,56.797806
238,0,-90.900490,217.674500,92.609711,59.177876,198.580673,114.902779,113.853546,175.688110,110.466530,134.693207,142.145248,54.674232
239,0,-91.308540,217.849716,91.759506,58.917767,199.173080,113.059120,113.514610,176.345322,108.383354,134.080643,142.825134,52.399700
240,0,-91.883476,218.405792,90.621277,58.655365,199.684448,111.336823,113.154816,176.748032,106.068771,133.430481,143.643280,49.758327
241,0,-92.384903,218.599182,89.808899,58.315872,200.026596,109.666695,112.712845,176.972977,103.784447,132.494064,144.564514,46.925934
242,0,-92.961441,218.824722,88.934952,57.997505,200.393173,108.025581,112.270721,177.452408,101.635796,132.086548,145.666031,44.525990
243,0,-93.512070,219.024551,87.920929,57.385048,201.250290,106.630165,111.671738,178.482864,100.048279,131.618698,146.708252,42.859005
244,0,-94.160271,219.433762,86.991074,56.717724,202.704102,105.377815,111.069336,179.999924,98.898232,130.951202,147.300064,42.306015
245,0,-95.373154,220.258255,85.981628,55.877739,204.303925,104.469673,110.240433,181.620453,98.306610,130.201004,147.624786,42.505733
246,0,-96.167824,220.954437,85.303268,54.930054,205.707809,103.781357,109.458588,182.972153,97.864616,129.339340,147.978867,42.583370
247,0,-97.040527,221.690018,84.701363,54.181797,206.766708,103.170914,108.678734,184.060333,97.455521,128.357361,148.442520,42.526661
248,0,-97.904335,222.470901,84.224838,53.449780,207.783401,102.679596,107.912109,185.173401,96.959534,127.507507,148.852066,42.558559
249,0,-99.108818,223.158569,83.921593,52.518452,208.816772,102.190384,107.073235,186.241257,96.465096,126.686249,149.239578,42.500431
250,0,-100.053169,223.670242,83.703049,51.888065,209.697952,101.828323,106.352097,187.204285,96.012276,125.908318,149.551956,42.458691
251,0,-100.870529,224.092163,83.477242,51.272617,210.535797,101.449394,105.666481,187.789673,95.629578,124.952835,149.722946,42.326599
252,0,-101.658302,224.399872,83.222107,50.709354,211.203522,101.135490,104.823051,188.296036,95.332596,124.159210,149.875931,42.318497
253,0,-102.422394,224.722260,83.077141,49.995476,211.811508,100.880646,104.119843,188.818207,95.165092,123.300896,150.038116,42.300941
254,0,-103.128448,224.975327,82.865837,49.194851,212.302231,100.659149,103.390312,189.208008,95.042862,122.629677,150.237579,42.330692
255,0,-103.888245,225.206726,82.638054,48.324173,212.511673,100.425407,102.661011,189.440002,94.923035,122.001518,150.376007,42.348721
256,0,-104.660072,225.389618,82.348434,47.563896,212.621658,100.225594,101.746323,189.593613,94.846123,121.159500,150.495178,42.270226
257,0,-105.525002,225.477707,82.122398,46.777378,212.669388,100.030655,101.010864,189.820587,94.769730,120.510689,150.622116,42.324268
258,0,-106.303810,225.499893,81.900284,45.962669,212.688721,99.857742,100.179420,190.206848,94.796837,120.305489,151.055923,42.559338
259,0,-107.134583,225.449539,81.627869,45.079559,212.753952,99.749420,99.574379,190.823212,94.833908,120.302483,151.588364,42.820747
260,0,-107.873573,225.365463,81.408882,44.366634,212.965683,99.558311,99.014725,191.480591,94.722031,120.282318,151.963104,43.172550
261,0,-108.508484,225.232986,81.044930,43.675152,213.283371,99.287704,98.457176,192.098068,94.605080,120.253708,152.374374,43.446083
262,0,-109.161530,225.179794,80.661285,42.787907,213.624359,98.934006,97.888100,192.798294,94.408279,120.410286,152.882202,43.678558
263,0,-109.764107,225.140976,80.282341,42.521397,213.654236,98.681824,97.415581,193.313629,94.134445,120.520271,153.200119,43.886913
264,0,-110.192940,225.069946,79.871735,41.661613,213.752838,98.298996,97.029663,193.533722,93.991005,120.543526,153.327164,44.020756
265,0,-110.528893,224.976028,79.505730,41.291767,213.674561,98.048454,96.629898,193.448349,93.933563,120.632591,153.451340,43.894268
266,0,-110.750710,224.779129,79.247711,41.060944,213.558258,97.910126,96.330482,193.140274,94.008537,120.495377,153.264359,43.980312
267,0,-110.988373,224.589447,79.066032,40.938560,213.551559,97.924301,96.098961,192.824097,94.136139,120.414986,153.141571,43.990009
268,0,-111.040535,224.403229,79.064674,40.945660,213.608505,98.067223,96.059364,192.680237,94.137840,120.512924,153.084656,44.072689
269,0,-111.144165,224.257736,79.272263,41.174324,213.688629,98.459587,96.233086,192.659210,94.134987,120.554420,153.117538,44.059612
270,0,-111.219673,224.062103,79.817352,41.415527,213.582458,99.229820,96.563210,192.551620,94.233315,121.145988,153.279861,44.047573
271,0,-111.302902,223.763031,80.497009,41.705639,213.182297,100.483131,96.737572,192.194809,94.604881,121.317261,153.341156,44.088078
272,0,-111.509720,223.379074,81.403198,41.918636,212.465591,102.072838,97.000053,191.418060,95.342552,121.613922,153.346100,44.390587
273,0,-111.788795,222.760834,82.478630,42.087463,211.349350,104.017319,97.004875,190.459793,96.210495,122.168922,153.527740,44.863125
274,0,-112.060806,221.989594,83.560005,41.899086,210.078949,106.114746,97.224411,189.282501,97.164963,122.926300,153.746857,45.469601
275,0,-112.301514,220.935913,84.886795,42.047489,208.699356,108.378029,97.312073,188.109207,98.097900,124.078857,153.740601,46.594658
276,0,-112.441330,219.882507,86.217957,41.680599,207.273590,110.662239,97.527008,187.097427,99.245697,125.082550,153.762909,47.965111
277,0,-112.777695,218.695435,87.652832,41.800514,205.776993,112.980759,97.497124,186.314224,101.041512,126.201050,153.712936,50.111855
278,0,-112.838661,217.347855,88.867447,42.099957,204.051331,115.386398,97.541702,185.362961,103.434677,127.573860,153.428574,53.146736
279,0,-113.271591,216.048538,90.495171,41.621960,202.571121,117.895592,97.589905,184.424713,106.255539,129.205658,152.771500,57.116661
280,0,-113.867889,214.802643,92.242722,41.618443,200.645218,120.461365,97.292435,183.248871,109.405655,130.867859,151.804337,61.684650
281,0,-114.340103,213.365707,93.806984,40.928543,198.486496,123.157166,96.854591,181.662018,112.943153,132.519287,150.298813,66.929626
282,0,-114.614693,211.855881,95.232414,40.240139,196.041183,125.864151,96.320061,179.600647,116.696648,133.728455,148.362793,72.083580
283,0,-114.942932,210.154648,96.639114,39.414433,193.330139,128.717361,95.612373,177.039352,120.603249,134.235794,145.987122,77.082268
284,0,-115.285225,208.360886,98.106232,38.307812,190.404526,131.478180,94.726814,174.065308,124.421936,134.501465,143.296143,81.812614
285,0,-115.566811,206.412598,99.499969,37.418930,187.324402,134.279510,93.771172,170.708267,128.147202,134.007385,139.950577,86.109169
286,0,-115.592392,204.008209,100.721870,36.570976,183.939301,137.199051,92.792641,167.203491,131.815063,133.426956,136.592621,90.024918
287,0,-115.818512,201.560547,101.880234,35.303471,180.609848,139.963867,91.645470,163.692856,135.420624,132.586914,133.135117,93.548302
288,0,-116.210464,199.077087,102.991333,33.977436,177.257187,142.551514,90.519463,160.064499,138.819061,131.676208,129.524033,96.914314
289,0,-116.698456,196.695465,104.150391,32.994446,173.673141,145.005829,89.328270,156.398529,142.165512,130.503311,125.814217,100.106583
290,0,-117.253647,193.975616,105.005913,31.374823,170.138351,147.209991,87.996544,152.633972,145.268997,129.131119,121.648430,103.143555
291,0,-117.668480,191.173386,105.712143,30.003635,166.437454,149.237869,86.698555,148.635803,148.221802,127.607552,117.152100,105.942688
292,0,-118.290718,188.446106,106.509697,29.115324,162.547928,151.058594,85.347778,144.384445,150.952209,125.788956,112.262276,108.513306
293,0,-118.834747,185.598404,106.973770,27.412811,158.586304,152.610504,83.801453,139.924438,153.295227,124.077957,107.188690,110.931877
294,0,-119.374062,182.607666,107.327553,26.131369,154.397552,153.928070,82.275726,135.218475,155.363220,122.549515,102.014992,113.101852
295,0,-119.860725,179.434448,107.414551,24.849112,149.915375,154.994415,80.637466,130.316971,156.994919,120.683212,96.697403,114.649399
296,0,-120.526367,176.158630,107.548615,23.606398,145.254364,155.780945,79.192383,125.218231,158.327087,118.747215,91.202675,115.633179
297,0,-121.175117,172.853607,107.472900,22.165989,140.467133,156.290466,77.668259,119.939545,159.333725,116.529884,85.601013,115.926140
298,0,-121.888824,169.398880,107.460358,20.851599,135.588242,156.540665,76.216316,114.383957,159.842422,114.062096,79.852654,115.593185
299,0,-122.454636,165.989670,107.093636,19.745468,130.727478,156.518799,74.864616,108.775543,160.030823,111.389076,74.188469,114.709831
300,0,-122.968872,162.544662,106.675797,18.635950,125.977188,156.319412,73.407562,103.408264,159.907837,108.832153,68.565781,113.437408
301,0,-123.407402,159.031128,106.000916,17.627676,121.334251,155.791550,72.260567,98.111786,159.411285,106.223579,63.190102,111.894447
302,0,-123.786545,155.628128,105.211609,16.379974,116.731834,155.094910,70.990143,92.976974,158.709824,103.658051,58.031723,110.190369
303,0,-124.172340,152.236526,104.286598,15.363678,112.192635,154.151260,69.886147,88.008263,157.634995,101.438484,53.071995,108.322136
304,0,-124.590805,148.872803,103.293900,14.502917,107.691154,152.957138,68.900406,83.047585,156.291855,99.562172,48.443409,106.202080
305,0,-125.137222,145.469162,102.109520,13.484652,103.041313,151.455429,67.843636,78.282333,154.845306,97.420074,43.851662,104.069405
306,0,-125.590263,142.224594,100.888718,12.647773,98.854996,149.677872,66.842308,73.688637,153.169907,95.404549,39.567448,101.518044
307,0,-125.829872,139.393921,99.417183,11.773371,94.891678,147.791077,66.031082,69.294350,151.169312,93.224693,35.551289,98.423340
308,0,-126.093803,136.460938,97.926437,11.217043,91.161407,145.738693,65.220917,65.160294,148.857208,91.090317,31.737961,95.243652
309,0,-126.385582,133.786743,96.376877,10.553697,87.687843,143.516739,64.748695,61.303131,146.271667,89.082726,28.314672,91.704010
310,0,-126.647247,130.798859,94.839149,10.216272,84.444748,141.126144,64.243637,57.802208,143.464218,87.221619,25.159601,88.080719
311,0,-126.944183,128.666992,93.265434,9.845626,81.518608,138.668869,63.851059,54.686394,140.408600,85.473969,22.355246,84.327530
312,0,-127.413437,125.914352,91.476501,9.539464,78.634712,136.050980,63.552231,51.793934,137.231812,83.963737,19.730370,80.522377
313,0,-127.765862,123.725334,89.641373,9.060463,75.927536,133.407547,63.285576,49.079208,134.016678,82.347710,17.288805,76.837730
314,0,-128.177811,121.581573,87.777672,8.618255,73.461700,130.727722,62.753887,46.418633,130.813034,80.394775,14.831033,73.034821
315,0,-128.701355,119.674690,85.957062,7.961486,71.109627,127.968369,62.141994,43.801926,127.690971,78.418274,12.457994,69.441399
316,0,-129.286652,117.759872,84.026222,7.233414,68.880081,125.224205,61.260223,41.251877,124.618614,76.376503,10.134440,65.871643
317,0,-129.845612,116.252769,82.126228,6.532627,66.920036,122.501358,60.373375,38.824875,121.482376,74.357140,8.008137,62.413895
318,0,-130.536621,114.731407,80.239807,5.855780,65.157616,119.751434,59.486580,36.641354,118.442856,72.418190,6.073003,59.010715
319,0,-131.182678,113.408737,78.369972,5.175771,63.656651,117.033745,58.775440,34.819038,115.337769,70.616188,4.426055,55.552227
320,0,-131.794632,112.228615,76.365753,4.581086,62.416855,114.253693,58.084328,33.358517,112.227493,68.860252,3.192943,52.174603
321,0,-132.513748,111.191483,74.567619,4.092483,61.427673,111.477020,57.528679,32.275944,109.105064,67.034180,2.268528,48.843643
322,0,-133.121826,110.243896,72.577087,3.542010,60.658611,108.686417,57.046051,31.398706,105.849907,65.173767,1.699868,45.339607
323,0,-133.624374,109.379425,70.694412,3.108344,60.008816,105.923515,56.706631,30.737247,102.632149,63.444271,1.304386,41.831200
324,0,-134.272751,108.652901,68.928123,2.659801,59.436329,103.179245,56.369316,30.210886,99.442337,61.855446,0.932486,38.454433
325,0,-134.867905,108.004311,67.139702,2.186362,58.897224,100.467964,55.932285,29.756998,96.291496,60.433857,0.611158,35.297695
326,0,-135.384140,107.520798,65.501480,1.850783,58.558830,97.886971,55.552395,29.226818,93.333771,59.006458,0.054665,32.322250
327,0,-135.855988,107.167007,63.847893,1.375564,58.220139,95.412834,55.066189,28.704126,90.645073,57.788479,-0.351223,29.577759
328,0,-136.308487,106.899071,62.284431,1.008313,58.038235,93.156067,54.494301,28.332890,88.147537,56.747452,-0.685391,27.014833
329,0,-136.808945,106.651489,60.829853,0.410119,57.895226,90.996841,53.960133,28.209576,85.811172,55.963020,-0.867422,24.744383
330,0,-137.292770,106.403374,59.387547,0.017693,57.931190,88.982094,53.564354,28.366602,83.669930,55.543156,-0.871085,22.720882
331,0,-137.668533,106.169304,57.945107,-0.547315,58.020988,87.062080,53.213165,28.684536,81.743774,55.236546,-0.901819,20.943329
332,0,-138.124329,106.034218,56.622459,-0.909625,58.254845,85.228737,52.864330,29.133369,80.006943,55.110447,-0.929223,19.372822
333,0,-138.340942,105.952805,55.246655,-1.483154,58.358234,83.451515,52.584263,29.519482,78.421524,55.338203,-1.147692,18.074717
334,0,-138.638885,105.761368,54.023491,-1.999284,58.407101,81.727051,51.950623,29.845299,76.946785,55.536591,-1.295883,16.860540
335,0,-138.873001,105.719337,52.939636,-2.407077,58.447060,80.190521,51.474136,30.058912,75.487068,55.889572,-1.416053,15.544414
336,0,-139.069626,105.602425,51.890728,-2.892277,58.284073,78.768272,51.248680,30.180021,74.242180,56.121616,-1.487371,14.316916
337,0,-139.235291,105.537544,50.919930,-3.525713,58.232292,77.600510,50.707554,30.034397,73.687996,56.590836,-1.520591,13.816092
338,0,-139.466827,105.441254,50.015190,-4.216109,58.204113,76.702896,49.857681,29.897478,73.625389,56.726936,-1.531703,13.727619
339,0,-139.666672,105.376015,49.266342,-4.967861,58.561790,76.251816,49.219730,30.328402,73.600243,56.625854,-1.558582,14.075508
340,0,-140.022598,105.315483,48.797569,-5.578640,58.948952,76.102242,48.775688,31.173386,73.719948,56.495396,-1.356981,14.533787
341,0,-140.372330,105.304604,48.506119,-6.277813,59.144783,76.121536,48.284603,31.792034,73.985947,56.430122,-1.141702,15.003336
342,0,-140.894180,105.179604,48.238121,-6.985913,59.281940,76.024925,47.730576,32.237713,74.174500,56.322906,-1.068249,15.493456
343,0,-141.367828,105.190880,48.021664,-7.614943,59.386986,75.840637,47.190834,32.517670,74.202179,56.158554,-1.129246,15.745001
344,0,-141.785782,105.234581,47.700359,-8.184388,59.366814,75.514046,46.433285,32.565556,74.137840,56.022316,-1.322890,15.787719
345,0,-142.216232,105.217918,47.369659,-8.633847,59.347370,75.104759,45.878963,32.528706,73.930222,55.856812,-1.585762,15.820358
346,0,-142.491592,105.259041,46.996597,-9.028771,59.424366,74.570908,45.479530,32.561348,73.748222,55.789925,-1.792913,15.829190
347,0,-142.858154,105.314255,46.609085,-9.421681,59.567944,74.051804,45.130409,32.848183,73.573830,55.819920,-1.867084,15.893992
348,0,-143.085892,105.297913,46.249008,-9.812356,59.726540,73.577728,44.900814,33.224979,73.406189,55.952583,-1.729207,15.977453
349,0,-143.247467,105.305031,45.832390,-10.076276,59.976768,73.118248,44.646759,33.681671,73.251846,56.055584,-1.496343,15.951004
350,0,-143.411957,105.266678,45.472092,-10.301210,60.243168,72.685555,44.427559,34.087891,73.101349,56.229637,-1.231226,15.990269
351,0,-143.537689,105.235489,45.127369,-10.459708,60.441002,72.305977,44.213943,34.473801,72.947418,56.370304,-0.971950,15.982382
352,0,-143.648682,105.255569,44.816124,-10.684139,60.546795,71.999664,44.009777,34.720631,72.801903,56.606796,-0.721453,15.897339
353,0,-143.751617,105.287781,44.547226,-10.900477,60.544224,71.772957,43.820938,34.791348,72.691017,56.689701,-0.597061,15.806686
354,0,-143.788864,105.240410,44.283016,-11.037304,60.576935,71.614960,43.630615,34.875252,72.578529,56.753880,-0.553961,15.764063
355,0,-143.864517,105.196472,44.163223,-11.158939,60.608650,71.490433,43.486099,34.993904,72.488579,56.701435,-0.529725,15.738098
356,0,-143.916870,105.141380,44.084797,-11.268470,60.606091,71.435905,43.442467,35.056129,72.401665,56.701595,-0.528302,15.711624
357,0,-143.992279,105.107590,43.986240,-11.363593,60.546558,71.354362,43.378403,35.070248,72.313202,56.651455,-0.553286,15.664767
358,0,-144.034927,105.069862,43.911476,-11.444933,60.549271,71.264313,43.338978,35.142902,72.158409,56.583313,-0.588326,15.548242
359,0,-144.078171,105.059074,43.812042,-11.537625,60.553696,71.182083,43.324360,35.150486,71.996918,56.455215,-0.567613,15.378811
360,0,-144.059692,105.045738,43.683979,-11.650456,60.551826,71.040649,43.238541,35.218231,71.896423,56.425396,-0.612339,15.312847
361,0,-144.005615,105.089027,43.557686,-11.806628,60.616371,70.951073,43.090187,35.277794,71.863846,56.399525,-0.519998,15.324789
362,0,-143.953201,105.162628,43.427475,-11.913178,60.713398,70.856590,42.962231,35.376568,71.876839,56.405773,-0.441659,15.396077
363,0,-143.908234,105.207657,43.264107,-11.991035,60.826031,70.745003,42.871090,35.528088,71.837929,56.431873,-0.353568,15.408448
364,0,-143.890701,105.258911,43.186695,-12.026952,60.923630,70.632690,42.833130,35.633667,71.774757,56.419601,-0.298379,15.390461
365,0,-143.877075,105.343658,43.145176,-12.003640,61.011101,70.524757,42.813244,35.693657,71.706337,56.441124,-0.245613,15.331592
366,0,-143.876938,105.436531,43.095417,-12.037467,61.085793,70.397865,42.779564,35.728966,71.668297,56.431774,-0.247010,15.290931
367,0,-143.855164,105.509270,43.028042,-12.068892,61.156425,70.303986,42.781784,35.762947,71.615341,56.429176,-0.248496,15.293491
368,0,-143.779373,105.597336,42.992085,-12.062089,61.174500,70.245369,42.776909,35.765213,71.593437,56.365921,-0.218630,15.212935
369,0,-143.718033,105.651886,42.948574,-12.026622,61.233376,70.251602,42.804188,35.760937,71.590645,56.388832,-0.175074,15.191499
370,0,-143.618042,105.678047,42.950611,-12.209204,61.528397,70.176308,42.857513,35.807110,71.634911,56.389767,-0.125156,15.238229
371,0,-143.511139,105.681839,42.952827,-11.968000,61.375561,70.343971,42.904808,35.870014,71.651924,56.401779,-0.061570,15.255579
372,0,-143.416931,105.708092,42.950554,-11.947424,61.408943,70.414307,42.951801,35.945240,71.718246,56.421402,0.026793,15.259652
373,0,-143.345642,105.648674,42.969742,-11.931382,61.443111,70.432426,43.031429,36.014439,71.738197,56.438797,0.103103,15.321930
374,0,-143.349991,105.603798,43.005318,-11.911296,61.432453,70.485725,43.047386,36.063114,71.762650,56.450390,0.131489,15.328612
375,0,-143.333954,105.545128,43.044170,-12.129300,61.562309,70.398155,43.060539,36.038502,71.757507,56.478973,0.096265,15.301341
376,0,-143.345200,105.472969,43.088398,-12.153424,61.513832,70.356186,43.093502,35.949490,71.734192,56.509956,0.061094,15.272015
377,0,-143.376404,105.475380,43.080914,-12.158989,61.401611,70.357445,43.051430,35.885193,71.716202,56.480560,0.056548,15.207081
378,0,-143.352554,105.409264,43.053196,-12.199862,61.339447,70.311203,43.001339,35.808224,71.720787,56.528004,0.008977,15.213743
379,0,-143.347000,105.393402,43.047375,-12.242433,61.315674,70.294151,43.004280,35.780582,71.725578,56.508270,0.005562,15.196144
380,0,-143.346985,105.378426,43.022560,-12.288213,61.354210,70.283081,42.973221,35.782654,71.669144,56.453587,0.007198,15.185723
381,0,-143.336060,105.363190,43.016705,-12.235056,61.352345,70.239700,42.967884,35.803970,71.631302,56.505379,-0.015056,15.177338
382,0,-143.341370,105.359901,43.007931,-12.221288,61.381752,70.206070,43.009758,35.866001,71.600212,56.482712,-0.000547,15.147391
383,0,-143.339127,105.390167,43.035480,-12.273231,61.455276,70.196281,42.956306,35.918953,71.596603,56.463821,0.003772,15.152467
384,0,-143.336990,105.387947,43.028080,-12.059776,61.255989,70.293053,42.957397,35.946701,71.590729,56.442234,0.037476,15.150104
385,0,-143.375854,105.324867,43.028461,-12.093221,61.221024,70.294998,42.971092,35.952248,71.591072,56.441029,0.056091,15.140979
386,0,-143.305191,105.277603,43.090107,-12.132207,61.172623,70.286446,42.941307,35.915298,71.586044,56.403507,0.029029,15.108080
387,0,-143.274643,105.260216,43.114674,-12.156302,61.128559,70.292625,42.887939,35.826290,71.564163,56.369713,0.009060,15.079100
388,0,-143.278885,105.322876,43.161922,-12.175063,61.091747,70.326965,42.888554,35.760067,71.597206,56.341789,0.005193,15.086519
389,0,-143.221451,105.367249,43.240932,-12.206896,61.080189,70.345444,42.891525,35.718357,71.624908,56.298344,-0.017793,15.053996
390,0,-143.191788,105.389175,43.324936,-12.101194,61.104450,70.378052,42.928368,35.739635,71.628342,56.356682,0.034001,15.069018
391,0,-143.121338,105.447495,43.400024,-12.063953,61.129524,70.372322,42.974430,35.784897,71.633949,56.385715,0.041218,15.056157
392,0,-143.079361,105.554108,43.460201,-11.983246,61.186531,70.379730,43.027817,35.829151,71.628265,56.401005,0.048644,15.058012
393,0,-143.041290,105.655357,43.524071,-11.936399,61.240257,70.404846,43.031136,35.836525,71.623360,56.423767,0.051105,15.044773
394,0,-142.956696,105.750000,43.596489,-11.880310,61.249493,70.425316,43.081966,35.854973,71.638954,56.449772,0.079152,15.079801
395,0,-142.912003,105.779976,43.633057,-11.839272,61.247185,70.455925,43.131954,35.838272,71.633308,56.506729,0.063602,15.077752
396,0,-142.835876,105.777458,43.661224,-11.805717,61.260578,70.471123,43.165192,35.852158,71.636093,56.493702,0.092962,15.068183
397,0,-142.817200,105.807953,43.686592,-11.794177,61.255859,70.490807,43.163960,35.834995,71.651779,56.504112,0.069273,15.073605
398,0,-142.801987,105.782295,43.732594,-11.777143,61.251244,70.542137,43.154305,35.858944,71.672562,56.491940,0.102626,15.132432
399,0,-142.808197,105.773659,43.791203,-11.779508,61.245705,70.587799,43.223419,35.862976,71.699005,56.493824,0.088678,15.142956
400,0,-142.804565,105.743492,43.818199,-11.784132,61.221199,70.562920,43.218513,35.881397,71.725334,56.539654,0.067312,15.150959
401,0,-142.788559,105.679352,43.857380,-11.781046,61.197296,70.591255,43.223820,35.827015,71.729134,56.528847,0.052461,15.144803
402,0,-142.791580,105.677109,43.884178,-11.792484,61.157383,70.595993,43.219658,35.805130,71.680641,56.537449,0.038271,15.123020
403,0,-142.799561,105.649155,43.881573,-11.829767,61.119629,70.603996,43.179928,35.769135,71.685631,56.505798,-0.008178,15.114330
404,0,-142.845947,105.667374,43.887440,-11.836864,61.100613,70.569206,43.131115,35.751404,71.677696,56.511650,-0.000852,15.114564
405,0,-142.825928,105.682175,43.896511,-11.887604,61.102451,70.577751,43.091743,35.732738,71.672585,56.468765,0.009007,15.126331
406,0,-142.893158,105.761696,43.934505,-12.165101,61.351978,70.430305,43.049156,35.779041,71.683754,56.449932,0.035954,15.124656
407,0,-142.917267,105.796509,43.969536,-11.961649,61.251057,70.510193,43.055077,35.839466,71.683861,56.434444,0.098997,15.114647
408,0,-142.907776,105.846848,43.957603,-12.147180,61.507034,70.412148,43.053890,35.951637,71.662354,56.471218,0.159016,15.111618
409,0,-142.866608,105.896912,43.974033,-11.920535,61.396698,70.496330,43.076286,36.039501,71.654770,56.483913,0.199203,15.134834
410,0,-142.892639,105.977982,44.009224,-11.937748,61.434074,70.506729,43.116177,36.107792,71.656746,56.509449,0.241943,15.138975
411,0,-142.853012,105.987053,44.065842,-12.085815,61.671738,70.407356,43.130306,36.141991,71.643898,56.516476,0.240691,15.142985
412,0,-142.805878,105.970909,44.066872,-11.874804,61.494049,70.524460,43.142742,36.135952,71.629501,56.520912,0.232078,15.147953
413,0,-142.823334,105.985771,44.093594,-11.866272,61.461163,70.521416,43.172325,36.128086,71.633423,56.522377,0.213891,15.163773
414,0,-142.800079,105.946037,44.091438,-11.909715,61.471191,70.538025,43.161316,36.107723,71.656761,56.521908,0.207472,15.171371
415,0,-142.811157,105.907005,44.114239,-11.911982,61.463085,70.532272,43.157379,36.093601,71.635628,56.503078,0.192223,15.168116
416,0,-142.848938,105.894142,44.110886,-11.868942,61.411942,70.481361,43.189301,36.094482,71.596748,56.521896,0.157182,15.149678
417,0,-142.825012,105.851250,44.134968,-11.847689,61.398167,70.476089,43.198891,36.093994,71.573463,56.559574,0.120670,15.094945
418,0,-142.821503,105.831497,44.119358,-11.811882,61.366711,70.488197,43.235874,36.083370,71.570045,56.543133,0.118035,15.093447
419,0,-142.839447,105.789848,44.138172,-12.049356,61.546055,70.365646,43.221180,36.064865,71.588470,56.547829,0.115947,15.088480
420,0,-142.833466,105.779900,44.128361,-12.070073,61.515995,70.377205,43.171227,36.034603,71.611336,56.549091,0.093701,15.093846
421,0,-142.855576,105.736099,44.087101,-12.101108,61.515621,70.387169,43.151459,36.018738,71.621681,56.544464,0.097142,15.113557
422,0,-142.842621,105.687828,44.036827,-11.948942,61.315170,70.495918,43.146671,36.019638,71.608955,56.557201,0.109148,15.116764
423,0,-142.865555,105.722702,44.013725,-11.960821,61.324718,70.488022,43.133457,36.032585,71.609772,56.534031,0.128014,15.147704
424,0,-142.836395,105.686836,43.993382,-12.058531,61.281696,70.436531,43.056423,36.050827,71.626175,56.529640,0.118640,15.193811
425,0,-142.881149,105.719292,43.950527,-12.307845,61.459503,70.295395,43.009258,36.056076,71.604637,56.483513,0.140079,15.190715
426,0,-142.886536,105.711327,43.919483,-12.143195,61.254284,70.366226,42.988029,36.069714,71.579720,56.485294,0.143926,15.182715
427,0,-142.880508,105.661629,43.899509,-12.148824,61.250813,70.306747,42.942245,36.076210,71.544762,56.466343,0.130136,15.131679
428,0,-142.919647,105.631859,43.870369,-12.171681,61.287235,70.241432,42.920330,36.079144,71.504021,56.471916,0.130470,15.101655
429,0,-142.936020,105.638313,43.863125,-12.214963,61.328125,70.209091,42.922142,36.115547,71.458252,56.495564,0.161287,15.085736
430,0,-142.934631,105.647247,43.836880,-12.214876,61.353951,70.133049,42.935097,36.164074,71.445084,56.531116,0.160536,15.066250
431,0,-142.923416,105.637756,43.809311,-12.195468,61.375019,70.144783,42.948322,36.232147,71.441216,56.524742,0.162832,15.078473
432,0,-142.947525,105.680504,43.824253,-12.216128,61.406376,70.148628,42.958523,36.261436,71.448257,56.484783,0.165524,15.104124
433,0,-142.958176,105.682281,43.815044,-12.162260,61.458397,70.209625,42.965279,36.269615,71.444618,56.471611,0.171500,15.118999
434,0,-142.961777,105.688095,43.841339,-12.386315,61.653374,70.066223,42.965626,36.297405,71.423752,56.472038,0.197745,15.123405
435,0,-142.960022,105.698746,43.819057,-12.410248,61.669968,70.045654,42.986908,36.348625,71.406532,56.461071,0.204332,15.118091
436,0,-142.960663,105.759857,43.820724,-12.402952,61.689240,70.063698,42.945122,36.340599,71.449905,56.470337,0.249102,15.141310
437,0,-142.946228,105.725227,43.806896,-12.424754,61.704155,70.042816,42.905617,36.372021,71.459900,56.449890,0.272093,15.162932
438,0,-142.951813,105.754913,43.831890,-12.228323,61.511654,70.153419,42.928165,36.417339,71.455673,56.457863,0.268195,15.130237
439,0,-142.930740,105.724655,43.828217,-12.425787,61.726074,70.039902,42.969883,36.395309,71.444077,56.473442,0.281350,15.144432
440,0,-142.913101,105.715210,43.838196,-12.383412,61.744694,70.026581,43.007248,36.407272,71.438622,56.526581,0.265496,15.140995
441,0,-142.850983,105.701820,43.862926,-12.125108,61.575768,70.162979,43.058949,36.462120,71.436012,56.518726,0.271693,15.134462
442,0,-142.846695,105.688232,43.894184,-12.101208,61.606464,70.160347,43.105904,36.534378,71.424728,56.567963,0.305603,15.149554
443,0,-142.773651,105.644463,43.894051,-12.052082,61.651913,70.146164,43.190708,36.589859,71.412720,56.601517,0.310607,15.141361
444,0,-142.765274,105.661354,43.916939,-12.034595,61.641506,70.144829,43.206841,36.573223,71.409927,56.619282,0.295683,15.124957
445,0,-142.773758,105.646141,43.971878,-11.985838,61.610565,70.130463,43.238674,36.545231,71.377647,56.616524,0.283315,15.117290
446,0,-142.773148,105.642525,43.973961,-11.979381,61.626495,70.121025,43.284061,36.557121,71.358543,56.649769,0.264954,15.094159
447,0,-142.814728,105.614067,43.983849,-12.179748,61.818241,70.024796,43.260700,36.563931,71.356102,56.652763,0.263901,15.111327
448,0,-142.826416,105.595268,43.937157,-12.031654,61.666306,70.093224,43.242249,36.572773,71.339012,56.606930,0.283266,15.134792
449,0,-142.852173,105.584755,43.914589,-12.042742,61.650528,70.083130,43.162529,36.573883,71.356094,56.563915,0.264443,15.125235
450,0,-142.898941,105.604012,43.885460,-12.306997,61.876202,69.943527,43.120743,36.557152,71.343773,56.513401,0.248729,15.133403
451,0,-142.925797,105.646538,43.835289,-12.352900,61.849087,69.906380,43.044727,36.572567,71.360413,56.511810,0.253462,15.126766
452,0,-142.968445,105.665558,43.805660,-12.228513,61.681351,70.034424,42.995064,36.585846,71.363869,56.467178,0.277317,15.162447
453,0,-142.968628,105.646179,43.787193,-12.258428,61.710854,70.045296,42.981853,36.640644,71.368088,56.468292,0.302372,15.161474
454,0,-143.002029,105.632027,43.791958,-12.260973,61.721577,70.067001,42.960175,36.650120,71.405205,56.443825,0.340282,15.205963
455,0,-143.033524,105.681641,43.799854,-12.280066,61.747364,70.057594,42.922127,36.694172,71.396606,56.431980,0.377959,15.235336
456,0,-143.025345,105.672386,43.796425,-12.274370,61.791744,70.065651,42.955883,36.759361,71.390900,56.426998,0.404494,15.202376
457,0,-143.012131,105.656769,43.804409,-12.283407,61.797516,70.073441,42.945675,36.781586,71.396736,56.469624,0.426378,15.222587
458,0,-142.972641,105.642075,43.807438,-12.309335,61.781612,70.077950,42.954365,36.769497,71.396545,56.423668,0.440077,15.224849
459,0,-142.969757,105.617348,43.790371,-12.253476,61.783340,70.108154,42.940689,36.728897,71.416664,56.447292,0.435373,15.240695
460,0,-142.954422,105.612289,43.783314,-12.482562,61.973885,69.999489,42.934971,36.735737,71.409866,56.463264,0.424365,15.243221
461,0,-142.923431,105.522751,43.788036,-12.355368,61.755749,70.044922,42.922981,36.739971,71.396759,56.461979,0.402762,15.248891
462,0,-142.920303,105.492371,43.747776,-12.551149,61.880123,69.928986,42.918434,36.695145,71.414551,56.485916,0.379704,15.225326
463,0,-142.937012,105.469345,43.761730,-12.552428,61.834518,69.901543,42.926548,36.667561,71.417648,56.484768,0.355372,15.242003
464,0,-142.951309,105.463699,43.752941,-12.574506,61.814930,69.907516,42.902348,36.651871,71.402039,56.496433,0.352630,15.251231
465,0,-142.937744,105.481773,43.770481,-12.524588,61.828049,69.953056,42.914143,36.660492,71.415443,56.501823,0.354644,15.235509
466,0,-142.930023,105.463997,43.738220,-12.579865,61.871990,69.946335,42.929409,36.696121,71.419212,56.499111,0.379120,15.228938
467,0,-142.928864,105.501976,43.750820,-12.545815,61.910690,69.969574,42.925079,36.727291,71.446465,56.442875,0.412855,15.304413
468,0,-142.929337,105.527199,43.756920,-12.525999,61.943901,69.994072,42.906746,36.792648,71.478104,56.469833,0.462243,15.292824
469,0,-142.899750,105.577621,43.739845,-12.404984,61.782276,70.099442,42.919121,36.834549,71.507103,56.479874,0.491581,15.340316
470,0,-142.916229,105.580795,43.746811,-12.431497,61.797966,70.102539,42.913288,36.852657,71.520119,56.449226,0.525333,15.390738
471,0,-142.886841,105.604889,43.712269,-12.636626,62.005615,69.953583,42.874622,36.883484,71.503250,56.447983,0.552576,15.376997
472,0,-142.895691,105.596153,43.733612,-12.649140,62.040676,69.965858,42.853329,36.908295,71.474167,56.465240,0.500683,15.379749
473,0,-142.899124,105.657463,43.698971,-12.619960,62.051350,69.962967,42.873039,36.903915,71.478050,56.469337,0.495687,15.377104
474,0,-142.885132,105.646645,43.691128,-12.647903,62.040688,69.961830,42.874462,36.903488,71.465004,56.439838,0.483613,15.339350
475,0,-142.884140,105.627876,43.711563,-12.626518,62.059292,69.949921,42.891533,36.905113,71.423477,56.441860,0.494879,15.327785
476,0,-142.883621,105.657089,43.648312,-12.658050,62.053432,69.907463,42.856682,36.902988,71.424622,56.412403,0.489430,15.303970
477,0,-142.859116,105.658554,43.626881,-12.642534,62.074898,69.876740,42.870079,36.886620,71.403694,56.423862,0.506646,15.291236
478,0,-142.872849,105.714867,43.637707,-12.641007,62.065510,69.844681,42.842571,36.887875,71.384201,56.473522,0.498541,15.283329
479,0,-142.852448,105.678230,43.624100,-12.453838,61.866364,69.958534,42.822308,36.849400,71.375931,56.431450,0.481345,15.268949
480,0,-142.891769,105.718765,43.586876,-12.482696,61.863678,69.950623,42.805023,36.841599,71.388824,56.413963,0.471807,15.269224
481,0,-142.874023,105.721046,43.576775,-12.494943,61.856548,69.964073,42.762009,36.851223,71.441963,56.429234,0.474710,15.287910
482,0,-142.901688,105.717812,43.593822,-12.442222,61.893730,70.014214,42.797974,36.882000,71.459259,56.413498,0.509003,15.336815
483,0,-142.897949,105.704475,43.614441,-12.432544,61.906982,70.040573,42.833500,36.938049,71.461235,56.480156,0.537537,15.383678
484,0,-142.874908,105.662369,43.617577,-12.416253,61.920788,70.045990,42.839180,36.979126,71.467751,56.489155,0.552649,15.379961
485,0,-142.850342,105.689484,43.611404,-12.360683,61.929398,70.067726,42.861900,36.999588,71.455048,56.518826,0.551971,15.371720
486,0,-142.831512,105.707375,43.605591,-12.375596,61.917835,70.044754,42.935314,36.982590,71.454514,56.521481,0.554399,15.367389
487,0,-142.828629,105.744507,43.656971,-12.375299,61.919559,70.022682,42.945583,37.000179,71.465286,56.534496,0.554633,15.363931
488,0,-142.821243,105.737747,43.619720,-12.357803,61.919292,70.017067,42.842808,36.996861,71.400581,56.544704,0.546498,15.372321
489,0,-142.818787,105.720688,43.623772,-12.349002,61.920898,69.995857,42.721592,37.013615,71.357628,56.549755,0.549882,15.370276
490,0,-142.786011,105.687103,43.613853,-12.351601,61.908833,70.001984,42.525913,37.031990,71.346405,56.534359,0.512016,15.379536
491,0,-142.810013,105.732391,43.581657,-12.328876,61.906391,69.993706,42.844185,37.021301,71.291237,56.521603,0.508638,15.373307
492,0,-142.835480,105.717339,43.527306,-12.322286,61.887581,70.015999,42.967171,36.977795,71.293037,56.472397,0.475020,15.357905
493,0,-142.831268,105.710396,43.487663,-12.391090,61.869602,69.985008,42.917969,36.993637,71.300560,56.453838,0.477895,15.350401
494,0,-142.861069,105.752586,43.484238,-12.439271,61.898228,69.957977,42.837563,36.988361,71.340103,56.427410,0.521011,15.393896
495,0,-142.882599,105.782242,43.399254,-12.472822,61.893929,69.989098,42.795288,37.029011,71.338333,56.401344,0.538824,15.423123
496,0,-142.945908,105.772087,43.382381,-12.519211,61.886383,69.960487,42.787930,37.060337,71.338310,56.385990,0.562339,15.421396
497,0,-142.948776,105.787125,43.336037,-12.530102,61.914665,69.968391,42.742245,37.093468,71.316055,56.337738,0.586708,15.426742
498,0,-142.956329,105.783882,43.316608,-12.556701,61.918980,69.965714,42.734501,37.097454,71.303871,56.327450,0.593890,15.445813
499,0,-142.963806,105.757057,43.308395,-12.549096,61.907372,70.006783,42.754036,37.109112,71.350197,56.374859,0.589880,15.459955
500,0,-142.956512,105.729958,43.286503,-12.596593,61.895927,69.947319,42.695076,37.089962,71.350861,56.354771,0.589842,15.442526
501,0,-142.952026,105.697739,43.223255,-12.628601,61.878426,69.915787,42.668373,37.053535,71.339615,56.329082,0.590638,15.429222
502,0,-142.984833,105.670601,43.192299,-12.606787,61.836037,69.919449,42.683311,37.044712,71.343483,56.385880,0.524385,15.456837
503,0,-143.017715,105.697472,43.153210,-12.640031,61.817860,69.896584,42.669502,37.037918,71.357574,56.342571,0.552365,15.484727
504,0,-143.092651,105.764359,43.126926,-12.679957,61.835964,69.883034,42.656643,37.041561,71.353714,56.311886,0.541774,15.475623
505,0,-143.200180,105.862984,43.063175,-12.719718,61.853859,69.862534,42.609859,37.022675,71.359840,56.279678,0.519277,15.516403
506,0,-143.304596,105.999100,42.952824,-12.797566,61.905155,69.839485,42.537239,37.062996,71.361725,56.257961,0.524656,15.525184
507,0,-143.377350,106.076965,42.909019,-12.832622,61.917187,69.819496,42.524105,37.070240,71.352959,56.253727,0.526814,15.525760
508,0,-143.427917,106.094475,42.913097,-12.911683,61.970501,69.801842,42.420979,37.125809,71.385010,56.192848,0.569632,15.553450
509,0,-143.258362,105.810814,43.077148,-12.885408,61.964752,69.807922,42.392536,37.146622,71.346573,56.180714,0.583625,15.551010
510,0,-143.412750,106.015190,42.903770,-12.977505,62.044567,69.735107,42.390350,37.190037,71.362167,56.196201,0.628635,15.587054
511,0,-143.279312,105.836334,42.996712,-12.979466,62.008026,69.743431,42.348480,37.209866,71.346710,56.178711,0.627571,15.590488
512,0,-143.291885,105.837662,42.931374,-12.992161,62.052330,69.716728,42.345314,37.239826,71.350960,56.171867,0.696816,15.567836
513,0,-143.349960,105.801193,42.942341,-13.037098,62.117069,69.706932,42.371136,37.247494,71.377876,56.173595,0.692786,15.612539
514,0,-143.329285,105.744812,42.855499,-13.014574,62.090485,69.739311,42.355778,37.292503,71.370941,56.222469,0.688256,15.605804
515,0,-143.307663,105.725769,42.830425,-13.067142,62.139267,69.674660,42.360210,37.301643,71.336494,56.229366,0.714855,15.622431
516,0,-143.361832,105.728767,42.779411,-13.318175,62.323673,69.491440,42.363346,37.314453,71.350311,56.264652,0.696043,15.618198
517,0,-143.338364,105.698586,42.733871,-13.153571,62.214897,69.587822,42.357292,37.324383,71.338089,56.220005,0.715310,15.611762
518,0,-143.309814,105.696007,42.710667,-13.348479,62.300297,69.484406,42.337822,37.315952,71.317726,56.191341,0.675236,15.624723
519,0,-143.345123,105.677879,42.628052,-13.155173,62.194672,69.568298,42.334106,37.326607,71.308685,56.196896,0.619955,15.623143
520,0,-143.401489,105.670914,42.568047,-13.371114,62.317593,69.387291,42.293316,37.342506,71.299957,56.192890,0.652199,15.610494
521,0,-143.360443,105.639465,42.514164,-13.389434,62.312553,69.373711,42.260410,37.364777,71.283218,56.199577,0.651666,15.631054
522,0,-143.359207,105.629951,42.446815,-13.431202,62.321194,69.331413,42.245003,37.372021,71.256470,56.169437,0.692276,15.623436
523,0,-143.517090,105.867081,42.261223,-13.472829,62.354923,69.297287,42.198566,37.415321,71.249336,56.160686,0.691725,15.637003
524,0,-143.497025,105.853462,42.185474,-13.493675,62.362293,69.310143,42.189587,37.411610,71.259789,56.166313,0.699258,15.628639
525,0,-143.537308,105.871040,42.188087,-13.497173,62.401802,69.284164,42.184269,37.444107,71.253006,56.158516,0.718262,15.637101
526,0,-143.539902,105.870064,42.155533,-13.515223,62.413395,69.272118,42.162151,37.488930,71.274551,56.151577,0.720823,15.659440
527,0,-143.569000,105.905807,42.052528,-13.509029,62.430527,69.277977,42.134323,37.536697,71.266647,56.153938,0.762451,15.668906
528,0,-143.524231,105.860474,42.043499,-13.547546,62.483284,69.273003,42.148685,37.571163,71.237076,56.137325,0.768796,15.667433
529,0,-143.507645,105.874352,41.985085,-13.477783,62.465134,69.262886,42.169849,37.585228,71.232452,56.169800,0.772967,15.673464
530,0,-143.442200,105.842346,41.983253,-13.504683,62.457478,69.267891,42.180149,37.593555,71.234879,56.184750,0.768398,15.656423
531,0,-143.442017,105.776894,41.993721,-13.487240,62.458508,69.262085,42.223835,37.560413,71.234978,56.191166,0.737984,15.661298
532,0,-143.367783,105.719032,41.962193,-13.502178,62.448532,69.262970,42.205254,37.566597,71.232071,56.181149,0.735430,15.663614
533,0,-143.315399,105.669632,41.913246,-13.516976,62.423859,69.252090,42.215702,37.541512,71.242012,56.197723,0.738329,15.670400
534,0,-143.301620,105.551933,41.903687,-13.521358,62.422165,69.236320,42.213177,37.535641,71.272324,56.208096,0.714559,15.666694
535,0,-143.250549,105.571121,41.834717,-13.537080,62.420914,69.199181,42.210434,37.543888,71.248871,56.211823,0.712921,15.680848
536,0,-143.238068,105.562576,41.842205,-13.528474,62.394714,69.211586,42.196468,37.548046,71.242165,56.205536,0.710985,15.670245
537,0,-143.244232,105.549171,41.804482,-13.539452,62.404564,69.175087,42.216148,37.555477,71.209579,56.196301,0.747527,15.653256
538,0,-143.233063,105.559868,41.804680,-13.544977,62.417572,69.165451,42.182747,37.583000,71.239433,56.215164,0.739579,15.654824
539,0,-143.206894,105.526657,41.789417,-13.532993,62.439606,69.168533,42.198582,37.579178,71.203346,56.220203,0.761221,15.674872
540,0,-143.193512,105.586876,41.741501,-13.537049,62.437439,69.152451,42.186703,37.578499,71.185394,56.222149,0.742550,15.664842
541,0,-143.216766,105.652054,41.758545,-13.533016,62.463501,69.168510,42.177464,37.595089,71.208435,56.216671,0.755003,15.673708
542,0,-143.221146,105.641487,41.759464,-13.529744,62.470642,69.183136,42.188744,37.596954,71.236816,56.203163,0.734593,15.696211
543,0,-143.213791,105.665100,41.787704,-13.553479,62.513584,69.185631,42.179634,37.642784,71.248680,56.216961,0.757566,15.720064
544,0,-143.194855,105.703705,41.768974,-13.552501,62.541759,69.195549,42.175251,37.652203,71.239502,56.202984,0.777825,15.716184
545,0,-143.207214,105.721809,41.792858,-13.547365,62.560005,69.196999,42.175667,37.679523,71.223228,56.205032,0.787492,15.723359
546,0,-143.199295,105.740578,41.814949,-13.547680,62.594219,69.214401,42.172062,37.697998,71.236160,56.216812,0.789766,15.738137
547,0,-143.257797,105.782227,41.789230,-13.547870,62.593529,69.169212,42.154865,37.740635,71.235275,56.239933,0.822785,15.754264
548,0,-143.255112,105.763206,41.868359,-13.580707,62.629520,69.179291,42.170025,37.751640,71.236801,56.219055,0.804829,15.754441
549,0,-143.263992,105.826973,41.825306,-13.564891,62.642799,69.178154,42.149467,37.762569,71.240990,56.185177,0.789958,15.746074
550,0,-143.261993,105.826050,41.786324,-13.521078,62.640995,69.178802,42.155289,37.771004,71.244080,56.170555,0.831532,15.744636
551,0,-143.265656,105.821831,41.803661,-13.527093,62.673992,69.197197,42.145493,37.799587,71.237198,56.218067,0.839143,15.741816
552,0,-143.233459,105.791939,41.811852,-13.516622,62.674961,69.208008,42.206322,37.780346,71.224884,56.229759,0.826534,15.745956
553,0,-143.256134,105.798088,41.815159,-13.510204,62.675713,69.201073,42.222698,37.787865,71.223763,56.231529,0.829367,15.751718
554,0,-143.230881,105.804283,41.796207,-13.514020,62.651203,69.198807,42.234001,37.787533,71.243065,56.252716,0.817489,15.773552
555,0,-143.218140,105.755905,41.783134,-13.499023,62.656387,69.226402,42.233189,37.774124,71.241814,56.256199,0.819086,15.745090
556,0,-143.210388,105.719131,41.795551,-13.488156,62.618553,69.218575,42.234848,37.739937,71.218094,56.271687,0.821620,15.733652
557,0,-143.246246,105.670334,41.783146,-13.509024,62.599159,69.219360,42.248711,37.732998,71.241356,56.282856,0.801080,15.724808
558,0,-143.248795,105.639183,41.789452,-13.459255,62.538826,69.226913,42.261047,37.726738,71.253914,56.277000,0.783686,15.752692
559,0,-143.243073,105.610741,41.786995,-13.463796,62.550827,69.217003,42.279427,37.720108,71.250320,56.273857,0.784800,15.732941
560,0,-143.243744,105.621964,41.782940,-13.457231,62.549011,69.220100,42.296070,37.699001,71.226074,56.327873,0.815943,15.715826
561,0,-143.235321,105.623093,41.768791,-13.441331,62.561310,69.227463,42.310352,37.711540,71.231461,56.319996,0.777718,15.710006
562,0,-143.258408,105.605881,41.751602,-13.450411,62.543877,69.228088,42.337440,37.731758,71.250313,56.288902,0.830811,15.752257
563,0,-143.249664,105.621414,41.751160,-13.465518,62.613949,69.239792,42.287327,37.761944,71.261826,56.296146,0.829054,15.758188
564,0,-143.256607,105.617561,41.746632,-13.511021,62.598289,69.252808,42.244617,37.767452,71.252403,56.286785,0.835008,15.750363
565,0,-143.295990,105.649292,41.731983,-13.530757,62.604584,69.236900,42.247742,37.797928,71.239166,56.261055,0.829590,15.764332
566,0,-143.336212,105.634315,41.681896,-13.564075,62.629028,69.209633,42.189190,37.819317,71.241669,56.257538,0.849263,15.757693
567,0,-143.371017,105.681702,41.690819,-13.576859,62.623596,69.206848,42.150379,37.832535,71.219742,56.237026,0.861307,15.756224
568,0,-143.420807,105.629753,41.671528,-13.612598,62.646538,69.175392,42.161163,37.877907,71.205101,56.235043,0.864948,15.755364
569,0,-143.404083,105.599083,41.648643,-13.619963,62.669197,69.192795,42.152130,37.906940,71.210831,56.249741,0.879071,15.762877
570,0,-143.437363,105.591919,41.636715,-13.647255,62.673756,69.183708,42.169922,37.894836,71.201797,56.243198,0.860002,15.764100
571,0,-143.467590,105.595566,41.636547,-13.623359,62.620930,69.193489,42.135098,37.868687,71.228088,56.233376,0.857196,15.783526
572,0,-143.485184,105.536819,41.672134,-13.634074,62.627846,69.206573,42.144230,37.849976,71.220543,56.234745,0.863513,15.762089
573,0,-143.484451,105.494659,41.671913,-13.599099,62.590084,69.221497,42.160820,37.845036,71.220215,56.236282,0.858484,15.765104
574,0,-143.467438,105.481873,41.654682,-13.620482,62.583237,69.223366,42.165432,37.845081,71.226738,56.241993,0.854839,15.771460
575,0,-143.476013,105.514381,41.631905,-13.625571,62.586887,69.212799,42.155533,37.847157,71.229675,56.242863,0.857299,15.769765
576,0,-143.433533,105.494675,41.629711,-13.619425,62.589066,69.214661,42.161819,37.839237,71.247360,56.234875,0.862834,15.759604
577,0,-143.412933,105.530739,41.684082,-13.618697,62.583023,69.233574,42.162899,37.854122,71.229836,56.249218,0.856070,15.766675
578,0,-143.444153,105.509575,41.685905,-13.596463,62.589512,69.230980,42.201969,37.877525,71.213371,56.237125,0.856027,15.772022
579,0,-143.468140,105.501602,41.686310,-13.541030,62.597618,69.261002,42.196281,37.892937,71.235901,56.250919,0.833082,15.791524
580,0,-143.457138,105.512398,41.686222,-13.566363,62.604279,69.256287,42.199699,37.874332,71.256767,56.263245,0.817046,15.817495
581,0,-143.456650,105.561729,41.706112,-13.563974,62.605129,69.244095,42.229546,37.870502,71.266197,56.263962,0.824777,15.792862
582,0,-143.432999,105.538132,41.685020,-13.536012,62.592625,69.280678,42.237137,37.851765,71.214569,56.256840,0.826492,15.793927
583,0,-143.415665,105.557732,41.687054,-13.532103,62.600040,69.268616,42.238533,37.856258,71.214958,56.257271,0.820640,15.800005
584,0,-143.420822,105.578835,41.692192,-13.531318,62.612019,69.241142,42.261192,37.859825,71.247322,56.264717,0.818971,15.803484
585,0,-143.407074,105.579147,41.700485,-13.541990,62.633881,69.244843,42.235363,37.902317,71.231285,56.266613,0.828110,15.795571
586,0,-143.429993,105.620918,41.659088,-13.552481,62.623516,69.231277,42.244068,37.887722,71.223732,56.268307,0.826934,15.793689
587,0,-143.412598,105.611107,41.653725,-13.392924,62.514961,69.333885,42.220692,37.886002,71.206856,56.245029,0.810881,15.790982
588,0,-143.432495,105.636841,41.634666,-13.560296,62.633595,69.218788,42.212753,37.900158,71.205528,56.226322,0.816506,15.763415
589,0,-143.432556,105.641670,41.656052,-13.439359,62.534878,69.350082,42.197662,37.891674,71.203377,56.224113,0.831181,15.787460
590,0,-143.444290,105.630539,41.625637,-13.627909,62.676155,69.213638,42.186768,37.886253,71.203964,56.209660,0.820776,15.774553
591,0,-143.480194,105.638496,41.609222,-13.597233,62.633476,69.182526,42.191673,37.900806,71.208672,56.232792,0.830003,15.801344
592,0,-143.487411,105.600349,41.620403,-13.475814,62.563129,69.321877,42.188530,37.924122,71.208580,56.214890,0.820839,15.787504
593,0,-143.485565,105.614082,41.622654,-13.628892,62.673523,69.186501,42.151253,37.930737,71.212448,56.218044,0.816381,15.794056
594,0,-143.472641,105.616318,41.585426,-13.644661,62.668011,69.191872,42.152943,37.930916,71.217216,56.223114,0.814549,15.821997
595,0,-143.516556,105.668861,41.579678,-13.640038,62.685505,69.178696,42.147869,37.934505,71.205460,56.157009,0.851577,15.800171
596,0,-143.504669,105.639160,41.566631,-13.636759,62.685646,69.174568,42.170128,37.939945,71.199005,56.140320,0.875727,15.784604
597,0,-143.498627,105.680885,41.550636,-13.671959,62.704399,69.163483,42.112129,37.992615,71.210236,56.188026,0.875383,15.784787
598,0,-143.496338,105.657829,41.517586,-13.643092,62.695393,69.129692,42.121933,37.989185,71.178467,56.203918,0.867100,15.790915
599,0,-143.485123,105.638596,41.454338,-13.667827,62.692806,69.115837,42.113197,37.976231,71.147232,56.198364,0.860667,15.768256
600,0,-143.497360,105.649124,41.463062,-13.656846,62.671013,69.104477,42.112854,37.983372,71.175598,56.199512,0.822154,15.784739
601,0,-143.500000,105.635384,41.459141,-13.694021,62.678249,69.125168,42.100800,37.980061,71.182991,56.210514,0.821413,15.799423
602,0,-143.517288,105.653442,41.453419,-13.710063,62.684341,69.101494,42.111118,37.989624,71.186226,56.187637,0.850989,15.825178
603,0,-143.489075,105.658897,41.416706,-13.693101,62.676178,69.082993,42.114918,38.001289,71.188049,56.194302,0.845995,15.825739
604,0,-143.509537,105.648781,41.351643,-13.668868,62.674931,69.078194,42.122108,37.994011,71.153824,56.221310,0.820436,15.790654
605,0,-143.495728,105.654884,41.307312,-13.701447,62.701366,69.049309,42.109093,38.013237,71.116997,56.188076,0.850274,15.801087
606,0,-143.512589,105.687927,41.288834,-13.686768,62.697544,69.056099,42.126587,38.053410,71.136307,56.196709,0.885755,15.805924
607,0,-143.496750,105.662186,41.256935,-13.713385,62.717342,69.028870,42.102467,38.044765,71.126526,56.195694,0.865257,15.824815
608,0,-143.569000,105.650345,41.212391,-13.716130,62.723816,69.026039,42.127617,38.037758,71.176781,56.168476,0.842983,15.834113
609,0,-143.561783,105.658463,41.207481,-13.725551,62.710278,69.036110,42.104465,38.026237,71.173164,56.197639,0.843741,15.829706
610,0,-143.566071,105.679161,41.188766,-13.750082,62.740437,69.005814,42.051052,38.053562,71.165192,56.195744,0.839012,15.835320
611,0,-143.544510,105.659531,41.114052,-13.788187,62.735481,68.966881,42.030727,38.072586,71.138161,56.195499,0.838793,15.818350
612,0,-143.559387,105.658028,41.109871,-13.789735,62.739975,68.966019,42.042553,38.088367,71.133484,56.181103,0.847802,15.815547
613,0,-143.590775,105.675201,41.080578,-13.827738,62.758446,68.925026,42.017223,38.100864,71.134285,56.154438,0.867149,15.806377
614,0,-143.606293,105.698204,41.047871,-13.801271,62.762783,68.931137,42.018066,38.109905,71.134567,56.156052,0.861010,15.826796
615,0,-143.581360,105.677727,41.009197,-13.816473,62.813164,68.938568,42.000168,38.166965,71.148926,56.160995,0.904683,15.848119
616,0,-143.583206,105.738510,40.960815,-13.836158,62.835747,68.903061,42.020065,38.219009,71.136559,56.155876,0.916900,15.854975
617,0,-143.578415,105.743050,40.920654,-13.855246,62.838978,68.866020,42.014633,38.228695,71.122696,56.194962,0.899266,15.863772
618,0,-143.566620,105.779175,40.876457,-13.838407,62.842667,68.869942,41.990051,38.219799,71.132278,56.192692,0.912461,15.824765
619,0,-143.556564,105.767929,40.842293,-13.848950,62.831177,68.864006,42.005241,38.211472,71.138222,56.208092,0.900310,15.857833
620,0,-143.558929,105.765823,40.843407,-13.844522,62.834538,68.869125,42.010227,38.199986,71.125778,56.204865,0.878871,15.859492
621,0,-143.569412,105.764938,40.846542,-13.836018,62.835327,68.868111,42.063789,38.197643,71.102814,56.192146,0.879323,15.873972
622,0,-143.566772,105.758469,40.816151,-13.822418,62.827133,68.847275,42.056992,38.187077,71.090988,56.203957,0.889015,15.843184
623,0,-143.555313,105.735100,40.762615,-13.857582,62.819221,68.828964,42.039173,38.188267,71.071182,56.221264,0.884506,15.859219
624,0,-143.601791,105.708130,40.744884,-13.858578,62.814423,68.809502,42.030006,38.184967,71.074867,56.206795,0.873740,15.854815
625,0,-143.598389,105.721840,40.744007,-13.895152,62.844997,68.830475,41.974655,38.201797,71.087990,56.203964,0.884896,15.874839
626,0,-143.577744,105.703499,40.712315,-13.926256,62.811687,68.813263,41.951817,38.207027,71.083321,56.191338,0.885241,15.877161
627,0,-143.616501,105.739357,40.696648,-13.983672,62.837662,68.805840,41.942348,38.208733,71.089676,56.186928,0.876692,15.894812
628,0,-143.637741,105.797119,40.667515,-14.008019,62.832417,68.812592,41.901993,38.256264,71.118561,56.140152,0.928485,15.896190
629,0,-143.651535,105.806793,40.662968,-14.018187,62.875973,68.832764,41.879478,38.299744,71.117874,56.130081,0.923427,15.940516
630,0,-143.652618,105.834663,40.635738,-14.037340,62.873528,68.821182,41.897141,38.292801,71.144829,56.126850,0.939709,15.977975
631,0,-143.646591,105.857712,40.621674,-14.043510,62.914177,68.805252,41.906113,38.321327,71.136902,56.116978,0.948124,15.944024
632,0,-143.641586,105.912651,40.595699,-14.048962,62.966988,68.797890,41.840565,38.391239,71.132133,56.156101,0.960895,15.955124
633,0,-143.636047,105.928230,40.586193,-14.022488,62.960133,68.792839,41.867100,38.419857,71.138336,56.168110,0.955867,15.989017
634,0,-143.645447,105.970512,40.534306,-14.038652,63.004547,68.788658,41.891987,38.444355,71.131561,56.185326,0.973033,15.987965
635,0,-143.573242,105.975121,40.500149,-13.988496,62.984169,68.750191,41.906544,38.422302,71.086060,56.197319,0.976280,15.982533
636,0,-143.561050,105.932892,40.477291,-13.996769,62.975033,68.736153,41.879997,38.413391,71.099747,56.162598,0.962925,15.947168
637,0,-143.532852,105.896759,40.493885,-14.009217,62.959904,68.724426,41.881004,38.395355,71.087082,56.161133,0.953568,15.924831
638,0,-143.555161,105.891556,40.480579,-13.997788,62.945122,68.730789,41.870350,38.365044,71.091110,56.235443,0.927064,15.981190
639,0,-143.587875,105.863937,40.473942,-14.005496,62.948109,68.741928,41.916847,38.344261,71.107475,56.202599,0.890058,15.906596
640,0,-143.578384,105.867210,40.471508,-13.985328,62.926598,68.700592,41.871689,38.321514,71.067543,56.191689,0.892752,15.899840
641,0,-143.566956,105.869781,40.485168,-13.999861,62.938183,68.712151,41.898994,38.327110,71.065788,56.200603,0.872324,15.901370
642,0,-143.590347,105.873222,40.525612,-13.994694,62.948322,68.716446,41.929546,38.332237,71.049637,56.200489,0.866563,15.897261
643,0,-143.586044,105.848473,40.506626,-13.976698,62.953732,68.724884,41.893463,38.356693,71.052299,56.195747,0.900795,15.889426
644,0,-143.589111,105.852135,40.513027,-14.000044,62.984547,68.713806,41.936550,38.416477,71.032463,56.222530,0.911361,15.906201
645,0,-143.637512,105.910301,40.506058,-14.012970,62.987320,68.696037,41.938545,38.425789,71.038086,56.178432,0.954924,15.914917
646,0,-143.675171,105.875999,40.516785,-14.010280,63.003540,68.722900,41.893902,38.461967,71.029732,56.193924,0.965033,15.941243
647,0,-143.720123,105.857643,40.515457,-14.072536,62.999004,68.746147,41.863255,38.485050,71.065292,56.153774,0.966627,15.919666
648,0,-143.733200,105.844093,40.523636,-14.105221,63.036217,68.760170,41.886276,38.485874,71.057449,56.144070,0.983518,15.937432
649,0,-143.762466,105.838234,40.506939,-14.106222,63.037785,68.727768,41.850548,38.487690,71.054199,56.112671,0.994379,15.932141
650,0,-143.786041,105.894325,40.511692,-14.138535,63.054882,68.724541,41.803406,38.520779,71.059395,56.130032,0.992267,15.953320
651,0,-143.839874,105.872215,40.522781,-14.168738,63.082928,68.733627,41.767635,38.565952,71.078651,56.084854,1.029522,15.950253
652,0,-143.834259,105.859421,40.522785,-14.186934,63.080414,68.727066,41.791531,38.572144,71.069191,56.090378,1.039254,15.976664
653,0,-143.848404,105.859398,40.529713,-14.145356,63.091522,68.730965,41.767803,38.608131,71.046387,56.086071,1.045334,15.968293
654,0,-143.856476,105.850510,40.556671,-14.144933,63.096836,68.719444,41.817326,38.614975,71.039780,56.095314,1.039458,15.978143
655,0,-143.846603,105.827614,40.542797,-14.136668,63.083298,68.709244,41.815922,38.615402,71.022171,56.111668,1.041842,15.968303
656,0,-143.823990,105.820427,40.581158,-14.110965,63.077309,68.724678,41.859924,38.578388,71.007286,56.134415,1.052879,15.916949
657,0,-143.823013,105.811920,40.635239,-14.040265,63.058064,68.708679,41.862850,38.576443,70.992607,56.163887,1.009344,15.923647
658,0,-143.801819,105.771057,40.662132,-14.035588,63.038902,68.732704,41.863605,38.531776,70.984192,56.164948,0.993317,15.894827
659,0,-143.788986,105.744835,40.738388,-13.991360,63.013321,68.729317,41.939888,38.501183,70.989784,56.172127,0.976545,15.890591
660,0,-143.766525,105.770638,40.765388,-13.964042,63.007542,68.714584,41.973743,38.489262,70.975174,56.189362,0.946756,15.866014
661,0,-143.751892,105.752380,40.769081,-13.903361,62.972866,68.752701,42.027302,38.457794,70.976074,56.210255,0.924611,15.843608
662,0,-143.709305,105.736977,40.792263,-13.888633,62.963745,68.779114,42.050072,38.434818,70.980911,56.217422,0.922631,15.838531
663,0,-143.708435,105.748672,40.838020,-13.844515,62.936008,68.783607,42.044849,38.421906,70.992561,56.253899,0.922167,15.860418
664,0,-143.727692,105.732353,40.908440,-13.792166,62.931293,68.804459,42.077518,38.431400,71.004189,56.285561,0.908102,15.842041
665,0,-143.725159,105.738113,40.912300,-13.786232,62.939079,68.806458,42.132050,38.441113,71.007889,56.284771,0.941772,15.851830
666,0,-143.736862,105.748741,40.948563,-13.777180,62.932381,68.816162,42.086891,38.442112,71.005051,56.271408,0.945396,15.849417
667,0,-143.717468,105.720627,40.944706,-13.787801,62.930836,68.837349,42.078045,38.426624,71.029213,56.283058,0.939464,15.866471
668,0,-143.707565,105.725349,40.953735,-13.797090,62.921329,68.832436,42.069347,38.426743,71.022606,56.279179,0.955517,15.853835
669,0,-143.736786,105.739807,40.991859,-13.814900,62.945797,68.833008,42.047539,38.421261,71.010887,56.259899,0.955935,15.851517
670,0,-143.733826,105.704109,41.013969,-13.807451,62.923603,68.825691,42.043743,38.419548,70.998337,56.283840,0.959892,15.848510
671,0,-143.699753,105.712173,41.003784,-13.778110,62.928341,68.828011,42.049019,38.420639,70.988152,56.228394,0.939378,15.835936
672,0,-143.762039,105.675537,41.082523,-13.794246,62.895821,68.820396,42.066311,38.419117,70.962540,56.265121,0.954730,15.846442
673,0,-143.746918,105.682014,41.093098,-13.793184,62.896805,68.840363,42.119495,38.374870,70.959312,56.235546,0.926176,15.776593
674,0,-143.756744,105.730446,41.140137,-13.765531,62.882126,68.838989,42.122921,38.382603,70.951637,56.264202,0.934314,15.820870
675,0,-143.749359,105.737015,41.146458,-13.762556,62.889202,68.867210,42.135815,38.364758,70.947639,56.267490,0.892598,15.777845
676,0,-143.713272,105.718666,41.179710,-13.750856,62.870682,68.840736,42.138603,38.344669,70.953300,56.215286,0.920863,15.741645
677,0,-143.701111,105.746109,41.205898,-13.724123,62.887417,68.836433,42.123196,38.345585,70.941399,56.226967,0.925306,15.748678
678,0,-143.690643,105.799614,41.181698,-13.785608,62.877945,68.829346,42.111893,38.341038,70.933647,56.231880,0.927487,15.742163
679,0,-143.657806,105.771866,41.233086,-14.039225,62.812424,68.780388,42.128391,38.364849,70.936920,56.219765,0.933088,15.737228
680,0,-143.669525,105.797623,41.234703,-13.826610,62.905891,68.814919,42.137722,38.371159,70.949142,56.228195,0.946565,15.748378
681,0,-143.682800,105.770676,41.262497,-13.804578,62.898083,68.845238,42.127068,38.388382,70.958519,56.229492,0.963746,15.777208
682,0,-143.716858,105.798546,41.289108,-13.829798,62.901936,68.850281,42.090099,38.399792,70.987915,56.255501,0.981684,15.799776
683,0,-143.694427,105.716133,41.301193,-13.845503,62.862858,68.887222,42.133163,38.382835,70.987297,56.253361,0.989238,15.817184
684,0,-143.729721,105.731705,41.289886,-13.840629,62.848709,68.901199,42.065815,38.393742,71.002991,56.254227,0.991599,15.815641
685,0,-143.713745,105.683945,41.321075,-13.848931,62.841526,68.908463,42.079208,38.385921,70.984909,56.268482,0.975629,15.800757
686,0,-143.724838,105.665398,41.331272,-13.839138,62.819725,68.893478,42.065994,38.382591,70.983734,56.281094,0.975467,15.770383
687,0,-143.727081,105.664909,41.334293,-13.866467,62.825375,68.874245,42.043709,38.395966,70.973129,56.227066,0.967680,15.752394
688,0,-143.740967,105.653099,41.321579,-13.852483,62.829674,68.868973,42.073803,38.381783,70.965012,56.262577,0.987321,15.767820
689,0,-143.742325,105.649315,41.299805,-13.838431,62.801250,68.847214,42.043579,38.366169,70.965729,56.291302,0.955922,15.754102
690,0,-143.762863,105.621330,41.267982,-13.858329,62.824718,68.834763,42.058163,38.369640,70.932030,56.284695,0.981045,15.753092
691,0,-143.752853,105.590179,41.262260,-13.858479,62.819794,68.841331,42.082226,38.358315,70.924706,56.284851,0.986139,15.731798
692,0,-143.747696,105.599106,41.237392,-13.844253,62.810070,68.821251,42.062248,38.367702,70.902367,56.290016,0.984911,15.736347
693,0,-143.773514,105.590248,41.228497,-13.840820,62.832691,68.801407,42.063797,38.366970,70.905876,56.312248,0.963941,15.730715
694,0,-143.785370,105.556564,41.166191,-13.873058,62.837063,68.781845,42.077431,38.362175,70.894585,56.328800,0.934203,15.749581
695,0,-143.846680,105.545387,41.118721,-13.882601,62.803513,68.766739,42.016865,38.351528,70.885185,56.306358,0.914210,15.747252
696,0,-143.854034,105.507683,41.114334,-13.901088,62.788383,68.752586,41.991203,38.349731,70.883743,56.315746,0.901689,15.730039
697,0,-143.925705,105.509506,41.069729,-13.919856,62.771141,68.749008,41.959625,38.332359,70.893074,56.303665,0.906505,15.745560
698,0,-143.901123,105.495346,40.999264,-14.008603,62.758110,68.713715,41.916580,38.329731,70.866592,56.272743,0.917474,15.742986
699,0,-143.973236,105.535034,40.956699,-14.040926,62.758682,68.691177,41.864819,38.347527,70.883003,56.251198,0.903758,15.739605
700,0,-143.993057,105.528877,40.904392,-14.101680,62.800602,68.672699,41.849457,38.358917,70.875626,56.216103,0.945750,15.743486
701,0,-144.011734,105.558434,40.854412,-14.125089,62.821037,68.633705,41.834576,38.363842,70.854004,56.210972,0.947335,15.741302
702,0,-144.023346,105.591309,40.793457,-14.144655,62.835773,68.625343,41.813591,38.379707,70.834564,56.207191,0.946874,15.733977
703,0,-143.984375,105.651878,40.725365,-14.149749,62.851219,68.588585,41.803284,38.386761,70.834579,56.197327,0.941830,15.740104
704,0,-144.028244,105.721207,40.676899,-14.158579,62.879642,68.572311,41.736069,38.411472,70.850296,56.160847,0.955925,15.741920
705,0,-144.008942,105.717194,40.656277,-14.195696,62.893562,68.567657,41.732521,38.416882,70.857582,56.126526,0.985442,15.734835
706,0,-143.994125,105.729797,40.575336,-14.218042,62.890686,68.532310,41.704506,38.414871,70.839806,56.082092,0.952659,15.730474
707,0,-144.023468,105.702789,40.535248,-14.264885,62.877640,68.523613,41.691830,38.402252,70.829742,56.087997,0.937064,15.736943
708,0,-144.053940,105.728928,40.424820,-14.304113,62.892265,68.485268,41.652008,38.401325,70.825806,56.080910,0.925299,15.733023
709,0,-144.079956,105.737701,40.363129,-14.307117,62.907322,68.491776,41.608459,38.400314,70.826782,56.043224,0.908437,15.750309
710,0,-144.080124,105.749367,40.323448,-14.370561,62.896832,68.462357,41.586178,38.393356,70.831665,56.055866,0.904158,15.755339
711,0,-144.089584,105.758904,40.208309,-14.407892,62.890121,68.469154,41.557728,38.393700,70.846931,56.046883,0.906002,15.796822
712,0,-144.094391,105.719475,40.100853,-14.424849,62.892563,68.439774,41.522285,38.412724,70.858322,56.040558,0.901275,15.819589
713,0,-144.096237,105.756172,40.010094,-14.425985,62.924362,68.428741,41.474640,38.413982,70.854614,56.045738,0.903807,15.863849
714,0,-144.113144,105.781372,39.919014,-14.452106,62.928631,68.378014,41.469700,38.451267,70.871727,56.022377,0.922654,15.878283
715,0,-144.105728,105.768776,39.812542,-14.526749,62.952057,68.378761,41.435566,38.476501,70.872910,56.030205,0.920391,15.894983
716,0,-144.109985,105.760056,39.695236,-14.584960,62.945194,68.335175,41.361534,38.464687,70.886917,56.004604,0.898725,15.892722
717,0,-144.117355,105.789536,39.598736,-14.614152,62.919392,68.288551,41.335392,38.452766,70.884590,55.949703,0.893603,15.877968
718,0,-144.163239,105.793236,39.515175,-14.656322,62.912457,68.267960,41.266956,38.433846,70.893394,55.942352,0.889787,15.884923
719,0,-144.163467,105.784180,39.390034,-14.751686,62.903950,68.205910,41.242973,38.411884,70.874893,55.944538,0.856351,15.914976
720,0,-144.186295,105.784729,39.345909,-14.777908,62.924519,68.198349,41.233936,38.417496,70.855324,55.944870,0.842731,15.898451
721,0,-144.185303,105.778740,39.270607,-14.798595,62.928810,68.168106,41.187450,38.384621,70.868156,55.920033,0.850678,15.871324
722,0,-144.166321,105.786514,39.210659,-14.788092,62.947353,68.107414,41.209301,38.417316,70.841454,55.915123,0.837104,15.866661
723,0,-144.152054,105.797279,39.160149,-14.764025,62.951275,68.079308,41.175823,38.407036,70.808472,55.929890,0.820675,15.868865
724,0,-144.148346,105.824646,39.092461,-14.739614,62.945068,68.068642,41.201786,38.404606,70.789116,55.932301,0.815838,15.867491
725,0,-144.096725,105.808372,39.010597,-14.743333,62.963097,68.037361,41.176907,38.386410,70.784409,55.926479,0.783769,15.835151
726,0,-144.095123,105.833473,38.909466,-14.775236,62.969334,67.990601,41.184402,38.388107,70.784668,55.894466,0.768802,15.844025
727,0,-144.152390,105.860374,38.850666,-14.844873,62.989876,67.973259,41.147476,38.375515,70.790665,55.876270,0.754382,15.857196
728,0,-144.169922,105.887802,38.806301,-14.921238,63.005962,67.919968,41.057648,38.404518,70.756874,55.857624,0.742623,15.848660
729,0,-144.169327,105.854874,38.704254,-14.938586,62.995270,67.876801,41.030415,38.427486,70.731773,55.841984,0.756876,15.872869
730,0,-144.108673,105.823959,38.668663,-14.966228,63.028507,67.839836,40.949615,38.449669,70.710236,55.796608,0.767134,15.872190
731,0,-144.127380,105.834190,38.599312,-15.022860,63.049122,67.793388,40.909462,38.463501,70.693222,55.798710,0.784485,15.884630
732,0,-144.092087,105.835014,38.614876,-15.053878,63.057705,67.762566,40.922230,38.504551,70.685570,55.843292,0.797465,15.874104
733,0,-144.086090,105.818932,38.688751,-14.993661,63.032375,67.780045,40.986629,38.500706,70.665535,55.878506,0.756676,15.858004
734,0,-144.052109,105.785110,38.864849,-14.856350,62.974335,67.815979,41.107597,38.489738,70.682404,55.933918,0.742435,15.832170
735,0,-143.973679,105.744469,39.066612,-14.668683,62.926033,67.929352,41.313988,38.431625,70.690468,56.095539,0.720187,15.810734
736,0,-143.871841,105.702530,39.390472,-14.365405,62.863991,68.086281,41.621399,38.376896,70.695023,56.227798,0.686854,15.776627
737,0,-143.661346,105.705360,39.915497,-13.978745,62.792904,68.384293,42.000698,38.264771,70.754128,56.425377,0.657930,15.753822
738,0,-143.524231,105.772346,40.641788,-13.691760,62.568695,68.815987,42.604042,38.088242,70.867844,56.692379,0.570937,15.696529
739,0,-143.284134,105.908890,41.510868,-12.820265,62.554470,69.588905,43.287872,37.842461,71.120125,56.944454,0.501535,15.694757
740,0,-143.008423,106.104614,42.583420,-11.933674,62.485893,70.657585,44.085621,37.524632,71.575813,57.207535,0.439899,15.837515
741,0,-142.749466,106.445877,43.935265,-10.939094,62.518082,72.108765,45.027657,37.249981,72.187050,57.472523,0.394301,16.155117
742,0,-142.546204,106.972519,45.573257,-9.588353,62.498413,73.941696,45.973972,37.155357,72.894386,57.793568,0.373529,16.736067
743,0,-142.241776,107.634293,47.332062,-8.258431,62.913166,76.014191,47.246407,37.335655,73.949081,58.274349,0.443611,17.725853
744,0,-141.811386,108.315216,49.285759,-6.813092,63.699646,78.263199,48.544834,37.841183,75.485138,59.376781,0.490196,19.539148
745,0,-141.211334,109.209900,51.410767,-5.308656,64.693176,80.838982,50.014732,38.719082,77.828651,60.990444,1.043287,22.141130
746,0,-140.203171,110.192734,53.752178,-3.713740,65.762131,83.848259,51.820641,39.989258,80.909782,63.265778,2.040405,25.446774
747,0,-139.101410,111.259140,56.386707,-1.794479,66.874184,87.223412,53.709557,41.470886,84.489334,66.371346,3.527263,29.239737
748,0,-137.748001,112.457458,59.401112,0.286780,68.163757,91.074051,55.878391,43.062115,88.406128,69.867569,5.336199,33.463593
749,0,-136.015503,113.707222,62.665260,2.906258,69.523575,95.127975,58.440765,44.891117,92.849525,73.729088,7.221057,38.149887
750,0,-134.144150,115.144844,66.260132,5.566031,71.156296,99.652046,61.191147,46.902252,97.507233,77.732666,9.351631,43.133137
751,0,-131.993683,116.818779,70.056335,8.538462,72.985497,104.377304,64.236320,49.051277,102.572304,82.151871,11.939362,48.238022
752,0,-129.361038,118.631165,74.053192,11.761209,75.060425,109.398567,67.392395,51.231960,107.560341,87.116035,14.755699,53.348339
753,0,-126.309364,120.086090,78.321938,15.216460,77.352676,114.578049,70.942879,53.827488,112.813721,91.813980,17.476713,58.924423
754,0,-123.149239,122.105141,82.672722,18.849646,79.920837,119.824310,74.814857,56.680336,118.337051,96.681038,20.406775,64.790550
755,0,-119.584236,124.219383,86.999290,22.858593,82.634521,125.168991,78.784286,59.704258,124.042854,101.993393,23.604750,70.794518
756,0,-115.802475,126.903473,91.513412,26.699438,85.470711,130.499527,83.027046,62.863373,129.775787,107.565605,27.155075,76.936172
757,0,-111.665169,128.746872,95.875923,31.022839,88.474495,135.767792,87.499146,66.199142,135.525330,113.458092,30.842377,83.122162
758,0,-107.500717,131.013580,100.287430,36.065201,91.471375,141.024689,92.085732,69.655144,141.129105,119.427361,34.760273,89.130829
759,0,-102.876915,133.518646,104.784698,40.943981,94.646126,146.095352,97.061394,73.216309,146.585144,125.845505,38.759579,94.989120
760,0,-97.935982,136.041138,109.220627,46.126167,97.854355,151.027985,102.151443,76.803421,151.871262,132.167633,43.003639,100.369034
761,0,-92.785362,138.449646,113.623680,51.495152,101.041649,155.721710,107.813820,80.473633,156.659134,138.665039,47.438351,105.441521
762,0,-87.549942,141.050476,118.063087,57.121807,104.186806,160.325623,113.579086,84.196236,161.234741,145.614410,52.055717,110.086914
763,0,-82.103859,143.560806,122.587875,63.145870,107.318169,164.603516,119.686150,87.960327,165.459900,152.692902,56.521954,114.563454
764,0,-76.587753,146.039276,126.994934,69.240242,110.304993,168.648056,125.868248,91.766701,169.383652,159.969910,61.230595,118.553711
765,0,-70.918602,148.487701,131.052338,75.657921,113.428642,172.499664,132.357178,95.567444,172.828857,167.241379,65.812820,122.340027
766,0,-65.417572,151.036484,135.414948,82.074181,116.656677,176.100891,138.812851,99.375160,176.116013,175.135498,70.295692,125.828323
767,0,-59.765736,153.542404,139.501328,88.410461,120.206299,179.454880,145.360168,103.152771,178.984360,182.368973,75.096306,128.888123
768,0,-53.924381,156.016922,143.193161,95.051109,123.589249,182.467117,151.922577,106.980484,181.691788,189.555588,79.612709,131.737259
769,0,-48.001068,158.615433,146.782791,101.638336,126.895714,185.271698,158.856308,110.794228,183.983383,196.846909,84.161201,134.309296
770,0,-41.895798,161.148956,150.087540,108.242691,130.404236,187.443207,165.564240,114.671860,186.052292,203.919662,88.929039,136.490311
771,0,-35.796310,163.769714,153.247543,114.935448,133.711731,189.460815,172.366287,118.439079,187.820801,211.304153,93.073250,138.392868
772,0,-29.551126,166.293823,156.220673,121.654991,136.895981,191.093674,179.178009,122.162857,189.135208,218.627136,97.972092,139.608688
773,0,-23.192841,168.642319,158.838608,128.369141,139.982986,192.377533,185.982651,125.794563,189.981949,225.702133,102.135635,140.576309
774,0,-17.373444,170.997864,161.600128,135.160812,142.936508,193.385010,192.780487,129.236099,190.412018,233.017944,106.554802,141.066879
775,0,-11.471849,173.106537,164.043015,141.892456,145.824600,194.107605,199.562653,132.627380,190.311020,240.116791,110.920326,141.101120
776,0,-5.806457,175.095947,166.206619,148.490707,148.629074,194.544083,206.194794,136.064133,189.903244,247.092834,115.321648,140.719315
777,0,-0.325803,177.007965,168.138672,155.578812,151.384613,194.781921,212.741440,139.491516,189.211044,253.828049,119.471237,140.082748
778,0,5.117749,178.894882,169.700302,161.927551,154.052139,194.776764,219.173203,142.829788,188.368362,260.205139,123.598228,139.009171
779,0,10.461680,180.747681,171.038788,168.115219,156.682587,194.644836,225.290939,145.988037,187.351227,266.362335,127.307999,137.979462
780,0,15.815553,182.463989,172.337402,174.196320,159.127686,194.517868,231.162094,148.911301,186.390442,272.242004,130.946060,136.886841
781,0,20.971682,184.172470,173.183563,179.822586,161.510681,194.025497,236.815353,151.595871,185.402435,277.740967,133.936188,135.826126
782,0,26.051437,185.817352,173.691437,185.250061,163.746109,193.464172,242.180115,154.041840,184.393906,283.155518,136.665146,134.690277
783,0,30.936382,187.351593,174.045563,190.450928,165.749451,192.690048,247.478851,156.357727,183.299866,288.199097,139.225311,133.482483
784,0,35.958698,188.616287,174.036438,195.610092,167.543243,191.912552,252.509979,158.417572,182.141174,293.249634,141.476089,132.259537
785,0,40.543064,189.726654,173.974930,200.466019,169.189316,190.797119,257.465332,160.327484,180.823120,298.169800,143.613129,130.925964
786,0,45.023918,190.704102,173.757507,205.399277,170.585770,189.648422,262.273712,162.040527,179.342102,302.946655,145.470642,129.391220
787,0,49.371120,191.574051,173.373306,210.057999,171.769302,188.202820,266.868988,163.557281,177.612137,307.575623,147.238174,127.625954
788,0,53.539604,192.220337,172.799820,214.666412,172.784317,186.572403,271.276001,164.917435,175.714249,312.001038,148.651443,125.689102
789,0,57.594379,192.865677,172.079605,218.971405,173.607925,184.698090,275.590668,165.991943,173.590668,316.043396,149.988174,123.351776
790,0,61.439289,193.365402,171.176559,223.271973,174.266418,182.839478,279.757507,166.888824,171.402344,319.958832,150.970703,120.888878
791,0,65.306465,193.812332,170.063400,227.236771,174.771408,180.772629,283.758331,167.569641,169.068512,323.699738,151.715317,118.286560
792,0,68.915359,194.179398,168.830276,231.085770,175.219635,178.597427,287.694061,168.038498,166.660095,327.289185,152.245514,115.608292
793,0,72.635269,194.442307,167.504745,234.990326,175.420288,176.443878,291.303223,168.355484,164.109604,330.760468,152.505920,112.992828
794,0,76.150574,194.600830,166.010071,238.766144,175.260620,174.145157,294.834412,168.505524,161.479721,334.161011,152.776596,110.178810
795,0,79.409767,194.637527,164.465118,242.238739,175.091248,171.728271,298.244446,168.511948,158.905945,337.090210,152.870468,107.263618
796,0,82.616104,194.516998,162.838593,245.598145,174.750473,169.410446,301.360565,168.318588,156.157211,340.075958,152.735260,104.370216
797,0,85.513710,194.250732,161.061920,248.570175,174.271591,166.861038,304.346680,167.908035,153.380859,342.864777,152.516785,101.172897
798,0,88.252335,193.959427,159.233414,251.361755,173.537262,164.253769,307.155121,167.268463,150.574539,345.296783,152.060516,98.042633
799,0,90.786247,193.621384,157.394608,254.016037,172.631744,161.580017,309.546875,166.394302,147.616241,347.293457,151.354141,94.693626
800,0,93.290123,193.149887,155.412827,256.655060,171.618500,158.720413,311.974335,165.415985,144.529160,349.253784,150.304672,91.310806
801,0,95.591438,192.793106,153.358917,259.131744,170.868057,155.792328,314.182404,164.393524,141.269714,350.955139,149.058823,87.773430
802,0,97.770302,192.445602,151.318619,261.416046,170.335617,152.680374,316.416809,163.396057,137.868668,352.661957,147.930710,84.013893
803,0,100.149368,192.118835,149.257217,263.834595,169.953217,149.705887,318.621613,162.760620,134.413361,354.193970,146.990494,80.119682
804,0,102.065506,191.844711,147.080566,266.023804,169.536545,146.494476,320.579681,162.144714,130.733185,355.635468,146.401413,76.069649
805,0,103.688866,191.667892,144.852798,268.019043,169.002213,143.168121,322.445862,161.659790,126.906067,356.994354,146.196945,71.866150
806,0,105.240601,191.378891,142.609344,269.895569,168.507889,139.788391,324.244843,161.270523,123.069832,358.270081,146.083923,67.587532
807,0,106.829514,191.056686,140.309418,271.684143,168.131912,136.507584,325.720642,160.901352,119.064713,359.168182,145.849289,63.221611
808,0,108.304138,190.911697,138.052109,273.387085,168.028015,133.333405,327.246368,160.688705,115.208321,359.874084,145.747284,58.870773
809,0,110.120178,190.881317,135.575989,274.981812,168.062927,130.398560,328.645172,160.558777,111.562675,360.219604,145.592896,54.658722
810,0,111.400101,191.060562,133.159088,276.228607,168.211151,127.710716,329.898376,160.560379,108.146271,360.321075,145.608795,50.645653
811,0,112.736580,191.294418,130.583008,277.398651,168.349472,125.399979,330.913086,160.701065,104.984932,359.938873,145.718430,46.769073
812,0,113.895439,191.604095,128.056290,278.261444,168.521927,123.557449,331.645477,160.599106,102.278870,359.037842,145.690079,43.329967
813,0,114.665604,191.917389,125.500053,278.693634,168.958618,121.902924,332.118805,160.424423,99.815506,357.187897,145.797043,39.751976
814,0,115.314583,192.125778,123.031952,278.834473,169.196167,120.672478,332.448334,160.124268,98.612579,356.240936,145.041168,38.000919
815,0,115.684792,192.415375,120.683830,278.657257,169.644424,119.882240,332.418488,159.823013,98.804939,356.094208,144.687164,37.986221
816,0,115.869644,192.903015,118.554482,278.205841,170.312958,119.068863,332.274170,159.944504,98.640366,355.739655,144.480377,37.625572
817,0,115.965508,193.546005,116.688828,277.985901,171.074631,118.379250,332.229645,160.320679,98.287361,355.423828,144.012924,37.287998
818,0,115.956924,194.214203,115.112732,277.911499,171.966095,117.722534,332.053864,160.530457,97.934860,355.221100,143.692154,37.014812
819,0,116.048996,194.903641,113.671524,277.854004,172.817886,117.068665,331.973511,160.963654,97.463821,355.047699,143.473328,36.691952
820,0,116.103203,195.536621,112.299522,277.818573,173.733994,116.437019,331.942566,161.515762,97.029587,354.849335,143.234314,36.426418
821,0,116.352890,196.236130,111.083344,277.879639,174.585892,115.943192,331.911072,161.859680,96.707237,354.696259,142.980240,36.253342
822,0,116.676628,196.961288,110.146889,277.943207,175.405121,115.515755,331.896912,162.157867,96.420464,354.574493,142.656555,36.104462
823,0,117.240295,197.655243,109.297150,278.033844,176.212433,115.156654,332.051605,162.494537,96.234848,354.492401,142.445251,36.019051
824,0,117.705849,198.356354,108.592461,278.198273,176.874054,114.926117,332.232239,162.937637,96.033302,354.538452,142.350601,35.959641
825,0,118.019890,198.973053,108.067284,278.339661,177.441711,114.829102,332.387817,163.440002,95.884209,354.736328,142.411224,36.035610
826,0,118.325706,199.422638,107.656303,278.568909,177.806473,114.839699,332.561157,163.879852,95.732956,354.959503,142.524872,36.116310
827,0,118.571091,199.702713,107.424126,278.696930,177.983398,114.949356,332.710175,164.000290,95.664436,355.059601,142.504471,36.177818
828,0,118.845329,199.907135,107.412651,278.801300,178.086639,115.205269,332.742493,163.827713,95.826843,355.095673,142.404205,36.281498
829,0,119.104874,200.061584,107.496780,278.990601,178.145294,115.561745,332.822052,163.643753,96.007858,355.070892,142.144577,36.734489
830,0,119.290535,200.207352,107.651749,279.128021,178.215485,115.946510,332.957367,163.654053,96.249657,355.272247,142.184601,37.020046
831,0,119.517624,200.346390,107.882149,279.203278,178.352493,116.382515,333.079651,163.810669,96.458565,355.625336,142.240646,37.209167
832,0,119.670120,200.520279,108.144119,279.189178,178.467010,116.912834,333.077209,164.023529,96.945610,355.693970,142.564362,37.686443
833,0,119.684326,200.684113,108.527382,279.060333,178.649368,117.572205,333.021454,164.307587,97.649544,355.850769,142.829086,38.569096
834,0,119.512009,200.790298,109.053955,278.791199,178.718460,118.379776,332.742615,164.707962,98.553200,355.854584,143.142563,39.565052
835,0,119.225372,200.869247,109.806114,278.372040,178.895111,119.356201,332.386688,165.161957,99.551582,355.600983,143.360428,40.703693
836,0,118.695236,200.914169,110.765305,277.882202,178.930786,120.534103,331.991882,165.553391,100.723701,354.995758,143.921478,41.839771
837,0,117.963463,200.916901,111.888794,277.187317,178.987045,122.009308,331.360321,165.698334,102.202377,354.342499,144.011719,43.255531
838,0,116.792976,200.974228,113.150505,276.077698,178.875153,123.746811,330.254089,165.708496,103.854805,353.400330,143.792603,45.086845
839,0,115.452835,201.005829,114.643456,274.759735,178.662109,125.739143,328.938141,165.429108,105.910446,352.231689,143.726120,47.091915
840,0,113.907379,200.896851,116.266418,273.138458,178.337891,128.109497,327.392792,164.986954,108.377731,350.747284,143.452423,49.531353
841,0,111.936150,200.876404,117.940994,271.152649,178.002365,130.715683,325.356659,164.562027,111.118446,348.965118,142.939529,52.601925
842,0,109.907097,200.715073,119.782463,268.900909,177.787659,133.703400,323.172516,164.177155,114.274651,347.088989,142.393906,55.916317
843,0,107.365105,200.654709,121.707565,266.135162,177.519608,136.836319,320.536194,163.819199,117.694382,344.977692,141.971313,59.394753
844,0,104.255486,200.713531,123.834435,263.093140,177.226181,140.203491,317.682159,163.481018,121.511299,342.341400,141.492767,63.491478
845,0,101.406357,200.684555,125.796005,259.320557,177.193146,143.617188,314.471375,163.248428,125.455498,339.802551,141.058533,67.746643
846,0,98.227341,200.507050,128.028061,255.797501,176.484802,147.475296,310.881561,162.943176,129.637436,336.534058,141.019608,72.048775
847,0,94.233246,200.564972,130.264603,251.318008,176.275833,151.237595,307.001892,162.667007,134.026733,332.917450,140.966125,76.409500
848,0,89.996017,200.405273,132.697266,247.171356,175.562347,155.168579,302.650787,162.383560,138.239777,329.228882,140.772446,80.842850
849,0,85.502495,200.247910,135.030426,242.379471,175.148605,159.104828,298.164368,162.027679,142.585464,324.918793,140.627167,85.181396
850,0,80.716499,200.067078,137.408798,237.220459,174.621414,162.886719,293.315887,161.695938,146.866776,320.436066,140.489548,89.510567
851,0,75.644989,199.931198,139.668365,231.940277,173.907150,166.870331,288.201019,161.319824,151.119232,315.538879,140.252441,93.767921
852,0,70.348793,199.713989,141.756699,226.067215,173.230576,170.370682,282.546753,160.712021,155.180511,310.422607,139.894073,97.992081
853,0,64.709473,199.590942,143.719574,219.989288,172.554413,173.926682,276.689026,160.098679,159.207489,304.845825,139.525894,102.078522
854,0,58.891376,199.402878,145.600708,213.747849,171.790588,177.285248,270.571014,159.405563,162.999786,299.294403,138.879593,106.067001
855,0,52.620941,199.291916,147.184784,207.335556,171.126724,180.290543,264.328522,158.717529,166.432816,293.324799,138.413742,109.560806
856,0,46.574432,199.063324,148.515549,200.876328,170.407913,183.177185,257.969330,157.967636,169.548553,287.264099,137.768661,112.763893
857,0,40.100082,198.900070,149.776108,194.412674,169.637054,185.688965,251.544739,157.242233,172.257141,281.008423,137.276566,115.527596
858,0,33.568939,198.729370,151.065903,187.839325,168.833710,187.838028,244.984558,156.465668,174.728027,274.850555,136.790375,118.039413
859,0,27.360519,198.393051,151.830872,181.111038,168.126099,189.596954,238.384186,155.619034,176.784821,268.571198,136.169235,120.119804
860,0,20.956230,198.222626,152.373093,174.485977,167.582748,191.008606,231.792099,154.886002,178.457214,262.154877,135.646408,121.781799
861,0,14.618154,198.082413,152.642288,167.924988,167.255890,192.110672,225.196014,154.294296,179.763733,255.682556,135.165115,123.166740
862,0,8.273889,198.057877,152.673920,161.393448,167.205032,192.843323,218.756470,153.926834,180.720139,249.241135,134.903702,124.074326
863,0,2.015065,198.067825,152.472702,154.967896,167.161072,193.276215,212.494324,153.730453,181.429016,243.006210,134.747147,124.752129
864,0,-4.421952,198.165619,152.108902,148.634003,167.083069,193.284088,205.951309,153.762650,181.698669,236.900589,134.465683,125.136734
865,0,-10.367724,198.224136,151.311752,142.069855,166.955612,192.915283,199.933426,153.609314,181.821259,230.813889,134.409912,125.207619
866,0,-16.380785,198.276093,150.550140,136.156967,166.736481,192.335434,193.836609,153.422516,181.456512,224.852066,134.404800,124.712868
867,0,-22.220940,198.224625,149.717102,130.352631,166.500412,191.417755,187.908981,153.084396,180.747589,218.986710,134.166733,123.869568
868,0,-27.806318,198.221115,148.632156,124.609039,166.444550,190.153244,182.234924,152.759338,179.586166,213.385986,133.935379,122.753441
869,0,-33.235725,198.180786,147.348267,119.252411,166.525070,188.721817,176.690033,152.737076,178.168930,207.856445,133.869308,121.281075
870,0,-38.482372,198.182968,145.987000,114.092987,166.699234,187.067917,171.606216,152.931717,176.491547,202.517273,134.081039,119.508789
871,0,-43.509132,198.223511,144.418503,109.094505,166.941086,185.235077,166.716827,153.234985,174.601944,197.426483,134.455017,117.453384
872,0,-48.530857,198.219803,143.059311,104.209770,167.124985,183.215012,161.852844,153.635864,172.536209,192.450165,134.854965,115.294434
873,0,-53.213764,198.109940,141.502747,99.735008,167.322723,181.128983,157.260651,153.976562,170.347397,187.806747,135.154358,113.015373
874,0,-57.657734,198.019485,139.805771,95.363876,167.622467,178.992401,152.930969,154.126083,168.084778,183.258835,135.435547,110.648621
875,0,-61.987865,197.912643,138.154251,91.130692,167.969177,176.753189,148.404633,154.473724,165.735733,178.889633,135.741104,108.223068
876,0,-66.070084,197.805008,136.353790,87.296799,168.338654,174.489914,144.580322,154.931519,163.408096,174.832977,135.956100,105.899979
877,0,-69.892807,197.745895,134.617310,83.504143,168.779648,172.213409,140.846329,155.383743,161.070114,170.961548,136.273636,103.505836
878,0,-73.414940,197.693192,132.656754,79.852554,169.195831,169.894226,137.465424,155.841217,158.821243,167.339111,136.583466,101.175369
879,0,-76.854652,197.710022,131.010910,76.568588,169.480743,167.557236,134.087265,156.251740,156.474731,163.913849,136.846481,98.874153
880,0,-79.969971,197.600510,129.198685,73.310112,169.829468,165.158417,130.840805,156.572952,154.126938,160.720413,137.044464,96.521217
881,0,-82.975952,197.578979,127.407593,70.533302,170.210480,162.774063,127.916115,156.946503,151.789795,157.625504,137.619446,93.955894
882,0,-85.735352,197.462875,125.535934,67.648308,170.691223,160.430313,125.188934,157.473099,149.423325,154.961014,137.981781,91.645668
883,0,-88.438728,197.396469,123.703575,65.109436,171.338730,158.071106,122.677322,158.246536,146.964142,152.367142,138.442780,89.358368
884,0,-90.948303,197.327148,121.857376,62.930592,171.880173,155.601135,120.420868,159.084869,144.488235,149.765045,139.870071,86.761688
885,0,-93.079041,197.157822,119.773476,60.676414,172.389450,153.085358,118.230072,159.817642,142.013519,147.913116,140.023712,84.290260
886,0,-95.173401,197.159500,118.012581,58.697281,172.771439,150.499756,116.253914,160.214523,139.426163,145.876953,140.323166,81.710724
887,0,-96.880333,197.121536,116.154922,57.001217,173.054565,147.863861,114.531593,160.248398,136.869247,144.036545,140.207291,79.273796
888,0,-98.258308,197.111435,114.273865,55.597210,173.344299,145.266083,113.008766,160.135452,134.315811,142.494141,140.039703,76.715347
889,0,-99.479050,197.136017,112.413528,54.260654,173.819550,142.617371,111.514915,160.277832,131.717484,141.158295,139.977203,74.155121
890,0,-100.566551,197.306396,110.560104,53.266190,174.319962,140.048141,110.310143,160.650040,128.973206,139.887375,140.371429,71.401886
891,0,-101.569092,197.354599,108.737953,52.256256,174.856506,137.430420,109.458344,161.255173,126.380028,138.777573,140.710938,68.895210
892,0,-102.367165,197.438217,107.059166,51.525753,175.360641,135.047577,108.584587,161.877563,123.807671,137.839386,141.544952,66.008751
893,0,-103.214348,197.460205,105.404762,50.711918,175.766800,132.636353,107.760132,162.501495,121.263237,137.049149,142.188461,63.478767
894,0,-103.974602,197.402481,103.751305,49.881725,176.114792,130.261124,107.074806,163.093262,118.624420,136.188324,142.888702,60.807636
895,0,-104.751244,197.439774,102.225792,49.261066,176.548706,127.948837,106.492393,163.696869,116.239594,135.342911,143.563934,58.207401
896,0,-105.433243,197.463242,100.817345,48.707897,177.024567,125.850113,105.779541,164.419174,113.768524,134.645554,143.999008,55.932766
897,0,-106.013611,197.549255,99.366463,48.184952,177.640076,123.815773,105.287231,165.295074,111.347115,133.807968,144.758789,53.405392
898,0,-106.592522,197.688553,97.941795,47.702698,178.282547,121.781578,104.929092,166.165741,109.072273,132.983871,145.634262,50.941303
899,0,-107.090569,197.925446,96.668861,47.379406,179.009186,119.825806,104.332184,167.017639,106.804153,132.547852,145.968857,48.836464
900,0,-107.538399,198.198120,95.422951,47.064548,179.645874,117.899628,104.018867,167.832321,104.603203,131.626328,147.153381,46.175877
901,0,-107.963371,198.453278,94.182861,46.586403,180.242981,115.993347,103.521667,168.587296,102.362122,131.120270,147.476151,43.930450
902,0,-108.328926,198.723724,93.051674,46.264935,180.696579,114.167061,103.181999,169.215607,100.099815,129.835892,149.146988,41.247734
