Trajectories
100
,,Sano:Wrist,,,Sano:MPH3,,,Sano:PIP3,,,Sano:DIP3,,,
Frame,Sub Frame,X,Y,Z,X,Y,Z,X,Y,Z,X,Y,Z
,,mm,mm,mm,mm,mm,mm,mm,mm,mm,mm,mm,mm
1,0,51.082397,72.900261,146.382217,214.179199,34.198631,142.859604,256.180359,19.139900,107.486481,284.014709,-11.730299,61.717266
2,0,51.082565,72.899490,146.383942,214.194321,34.207230,142.822159,256.165436,19.156746,107.431496,284.014740,-11.691879,61.679073
3,0,51.079220,72.899918,146.376816,214.204147,34.198265,142.759476,256.067566,19.242104,107.409828,284.008148,-11.683505,61.617294
4,0,51.095253,72.886848,146.377121,214.195312,34.192806,142.744522,256.063477,19.262632,107.365173,284.163879,-11.195355,61.415054
5,0,51.075745,72.861015,146.372253,214.150970,34.202164,142.730591,256.028748,19.269251,107.307465,284.099518,-11.186691,61.342995
6,0,51.071522,72.837875,146.347153,214.135895,34.156235,142.746338,255.998306,19.270645,107.303383,284.084534,-11.195233,61.345123
7,0,51.001617,72.784164,146.391571,214.127151,34.148617,142.749146,255.997177,19.270805,107.311089,283.915833,-11.626979,61.507408
8,0,51.030640,72.788010,146.389435,214.121613,34.134380,142.767914,255.985016,19.244326,107.305214,284.048553,-11.267335,61.383835
9,0,51.050411,72.781158,146.346970,214.097015,34.114590,142.764053,255.979752,19.189865,107.315979,283.906677,-11.670377,61.537033
10,0,51.030350,72.746803,146.359451,214.115921,34.082447,142.762177,255.985535,19.162846,107.323036,283.895813,-11.715135,61.551567
11,0,51.013794,72.729073,146.361740,214.124802,34.033024,142.756317,255.975601,19.095644,107.272438,283.876984,-11.786769,61.576149
12,0,51.062359,72.740112,146.313782,214.112946,34.006714,142.743607,255.980942,19.035130,107.274628,283.874054,-11.877292,61.517517
13,0,51.104233,72.686256,146.280426,214.119904,33.950394,142.716537,255.991486,18.969872,107.235863,283.829437,-11.939792,61.517059
14,0,51.086815,72.681374,146.297867,214.131271,33.918434,142.691360,255.990005,18.942163,107.178528,283.883698,-11.707851,61.377686
15,0,51.089188,72.668808,146.265808,214.140747,33.898994,142.643845,255.974533,18.906294,107.117493,283.764862,-12.043100,61.409344
16,0,51.076492,72.639458,146.276550,214.142410,33.885021,142.582748,255.977814,18.879089,107.013680,283.740601,-12.064192,61.353840
17,0,51.109413,72.629509,146.203598,214.157852,33.851334,142.565491,255.972870,18.860359,107.008568,283.721741,-12.095522,61.308258
18,0,51.140038,72.600723,146.220093,214.198013,33.853458,142.512146,256.014557,18.865688,106.958824,283.765656,-12.114168,61.229294
19,0,51.146000,72.623970,146.189835,214.225067,33.873127,142.479843,256.009766,18.870872,106.906342,283.757568,-12.073674,61.185772
20,0,51.167267,72.642357,146.182083,214.228287,33.882191,142.465454,256.037781,18.871225,106.889328,283.756287,-12.062180,61.155788
21,0,51.228130,72.641678,146.149063,214.224319,33.903854,142.458405,256.027924,18.919579,106.874588,283.764282,-12.046264,61.118362
22,0,51.232864,72.664711,146.131058,214.258926,33.897476,142.427628,256.028809,18.915880,106.880348,283.805603,-11.998324,61.101311
23,0,51.214752,72.670113,146.129410,214.258224,33.944714,142.421036,256.043549,18.952818,106.855888,283.812042,-11.973234,61.081116
24,0,51.232071,72.679657,146.132660,214.252518,33.971733,142.396530,256.027710,18.977003,106.811104,283.822632,-11.942872,61.076332
25,0,51.271374,72.721794,146.075821,214.249512,33.979794,142.384949,256.050903,19.009039,106.788422,283.804413,-11.927320,61.047760
26,0,51.293186,72.742264,145.997437,214.271912,34.019039,142.372498,256.035767,19.050602,106.769257,283.819214,-11.860051,61.023624
27,0,51.270580,72.705292,146.013626,214.261658,34.046131,142.380325,256.057709,19.112318,106.740952,283.857971,-11.789255,60.997768
28,0,51.325756,72.735657,145.991180,214.306351,34.080780,142.356201,256.089264,19.165152,106.755005,283.869568,-11.737479,60.986347
29,0,51.396267,72.753395,145.953171,214.305557,34.092964,142.352066,256.084747,19.191992,106.726585,283.859711,-11.690614,60.941879
30,0,51.351788,72.707237,146.013000,214.317307,34.085506,142.352097,256.120239,19.184227,106.703987,283.916107,-11.690344,60.936924
31,0,51.401611,72.722740,145.946106,214.316360,34.098087,142.350586,256.125458,19.183733,106.700951,283.920258,-11.695121,60.925880
32,0,51.377407,72.701363,145.908417,214.298813,34.093090,142.321594,256.112823,19.199879,106.690544,283.923004,-11.663250,60.893219
33,0,51.385654,72.719521,145.887985,214.328522,34.097118,142.284286,256.112183,19.211391,106.669464,283.934174,-11.662098,60.887272
34,0,51.437115,72.773293,145.837997,214.316238,34.092995,142.264267,256.110107,19.216705,106.605186,283.912689,-11.667062,60.805843
35,0,51.458012,72.787361,145.777100,214.356857,34.111214,142.221603,256.157745,19.196791,106.556587,283.917877,-11.687831,60.763115
36,0,51.567284,72.874802,145.690369,214.360825,34.132824,142.157150,256.178436,19.208282,106.515488,283.866150,-11.695662,60.662411
37,0,51.600239,72.867050,145.643570,214.387680,34.110531,142.116928,256.186005,19.215027,106.438026,283.884460,-11.666939,60.623562
38,0,51.617409,72.833160,145.644974,214.386139,34.102528,142.056137,256.197266,19.223969,106.378738,283.923950,-11.672556,60.554699
39,0,51.676144,72.818680,145.657394,214.426117,34.067898,142.036026,256.298981,19.119591,106.323723,283.940582,-11.661402,60.508411
40,0,51.680588,72.766724,145.664078,214.434052,34.078953,142.023468,256.338074,19.156902,106.289261,283.966766,-11.642326,60.495770
41,0,51.663445,72.744354,145.653625,214.426254,34.051861,142.006378,256.286713,19.229530,106.306549,283.981140,-11.598469,60.472088
42,0,51.662685,72.713005,145.639175,214.435410,34.051815,141.994339,256.334686,19.153975,106.274178,284.003601,-11.603056,60.451923
43,0,51.661976,72.699455,145.647736,214.438965,34.059189,141.976151,256.315247,19.214928,106.267593,284.008667,-11.567142,60.431736
44,0,51.670776,72.694633,145.613907,214.449219,34.050823,141.973877,256.311005,19.214338,106.267273,284.007324,-11.561790,60.427315
45,0,51.640709,72.674507,145.604599,214.449493,34.039658,141.964294,256.358002,19.155525,106.246178,284.085968,-11.367128,60.326145
46,0,51.643867,72.655197,145.619949,214.430344,34.016064,141.937012,256.338745,19.107880,106.238289,283.986725,-11.637969,60.400269
47,0,51.651321,72.637901,145.608582,214.427109,33.973347,141.910980,256.309845,19.040682,106.162865,284.057587,-11.506415,60.279999
48,0,51.682446,72.645668,145.621506,214.424301,33.927341,141.868439,256.272095,19.045723,106.114571,283.992035,-11.562896,60.203079
49,0,51.702148,72.644997,145.611633,214.447632,33.884056,141.824265,256.259430,18.994108,106.094505,283.848358,-11.860494,60.221470
50,0,51.696320,72.645309,145.616394,214.445419,33.874916,141.819366,256.256805,18.969206,106.069748,283.837250,-11.910069,60.189915
51,0,51.675659,72.633904,145.630188,214.424713,33.844444,141.838394,256.215240,18.932474,106.064278,283.815247,-11.923410,60.178360
52,0,51.686184,72.609482,145.628265,214.442368,33.816700,141.838394,256.200836,18.925894,106.092674,283.793976,-11.906345,60.171730
53,0,51.632458,72.582848,145.635681,214.401306,33.834728,141.870071,256.163727,18.918446,106.079269,283.794800,-11.913836,60.180004
54,0,51.614487,72.585022,145.655746,214.372192,33.828075,141.897369,256.131897,18.945648,106.106567,283.789673,-11.872785,60.243210
55,0,51.595509,72.552681,145.659180,214.349579,33.838478,141.942993,256.202179,18.932997,106.187279,283.775177,-11.815637,60.264771
56,0,51.561993,72.583405,145.716675,214.320953,33.847610,141.995270,256.168854,18.958685,106.237061,283.764404,-11.785560,60.338058
57,0,51.509537,72.578339,145.708771,214.322083,33.890572,142.026901,256.099060,18.963039,106.262642,283.765839,-11.727811,60.389641
58,0,51.489380,72.590736,145.726791,214.289185,33.886955,142.051971,256.132172,19.000679,106.319534,283.767059,-11.743143,60.424915
59,0,51.467319,72.603333,145.701065,214.213379,33.915642,142.051941,256.106873,18.979424,106.342567,283.761780,-11.758854,60.463470
60,0,51.455730,72.600113,145.712082,214.233582,33.897717,142.083664,256.095459,18.947931,106.371246,283.712769,-11.801868,60.458958
61,0,51.424423,72.613174,145.726212,214.198029,33.888184,142.078354,255.973434,18.890800,106.329834,283.676300,-11.813512,60.435879
62,0,51.400326,72.629730,145.759827,214.155319,33.859600,142.063660,255.961838,18.873856,106.303444,283.598999,-11.868316,60.422859
63,0,51.337727,72.681580,145.820999,214.100693,33.857670,142.109482,255.877579,18.896427,106.332039,283.483704,-11.890908,60.437889
64,0,51.314823,72.701881,145.818268,214.053421,33.867516,142.135834,255.816696,18.843456,106.377243,283.470032,-11.916186,60.448135
65,0,51.304897,72.722092,145.814438,214.028763,33.897167,142.143219,255.733337,18.917213,106.412628,283.384552,-11.951594,60.484501
66,0,51.252899,72.754189,145.817978,214.116928,33.885872,142.223297,255.773849,18.889078,106.453110,283.445740,-11.657585,60.383766
67,0,51.231724,72.785538,145.833679,214.108139,33.918819,142.320526,255.702591,18.976215,106.516243,283.380005,-11.918302,60.630295
68,0,51.185474,72.768280,145.870758,214.064590,33.951656,142.411270,255.707657,19.044937,106.638397,283.386475,-11.860154,60.772095
69,0,51.181896,72.777069,145.882202,213.961304,33.982670,142.442444,255.728806,19.058634,106.724731,283.496918,-11.778423,60.936909
70,0,51.161869,72.740005,145.927902,213.971741,33.986660,142.527924,255.801376,19.133047,106.930748,283.567322,-11.713456,61.132988
71,0,51.113655,72.702560,145.980988,213.948929,33.964394,142.658646,255.840546,19.151121,107.072289,283.640289,-11.668508,61.296604
72,0,51.094093,72.659843,146.004440,213.953979,33.998848,142.748032,255.876846,19.143116,107.242065,283.739014,-11.629323,61.457554
73,0,51.072350,72.678993,146.025513,213.939255,34.002148,142.819778,255.864746,19.179842,107.337479,283.805237,-11.608264,61.605217
74,0,51.081505,72.717987,146.011185,213.934357,33.995548,142.879562,255.900146,19.146935,107.405983,283.912506,-11.393308,61.604420
75,0,51.073120,72.728943,146.019073,213.910873,34.003422,142.906509,255.887146,19.159302,107.474869,283.812439,-11.663393,61.748589
76,0,51.108204,72.802658,146.012802,213.921829,34.062199,142.931122,255.874756,19.167616,107.474915,283.786621,-11.700977,61.775341
77,0,51.095184,72.827568,146.010406,213.918396,34.052330,142.901718,255.848114,19.158278,107.455215,283.776642,-11.709796,61.763470
78,0,51.120911,72.848511,146.019333,213.931320,34.101627,142.872055,255.815689,19.198145,107.418419,283.730560,-11.716412,61.720871
79,0,51.128502,72.869446,146.031403,213.914902,34.101704,142.865524,255.799210,19.138220,107.365242,283.686951,-11.746902,61.634933
80,0,51.098717,72.835594,146.037155,213.912109,34.103703,142.846146,255.766159,19.152048,107.348381,283.619019,-11.764446,61.608418
81,0,51.113071,72.848434,146.052200,213.899918,34.077679,142.836685,255.744492,19.183899,107.299438,283.588409,-11.732764,61.536007
82,0,51.086281,72.815651,146.066116,213.881851,34.064445,142.828522,255.725143,19.181667,107.268173,283.584900,-11.697915,61.481430
83,0,51.113625,72.801933,146.052368,213.906464,34.050690,142.778214,255.738403,19.168686,107.222527,283.553589,-11.699862,61.419945
84,0,51.103085,72.775108,146.049194,213.885590,34.057507,142.753571,255.693680,19.180059,107.171524,283.531799,-11.680737,61.388412
85,0,51.058083,72.774818,146.025497,213.854233,34.043221,142.724228,255.674057,19.172344,107.163704,283.521423,-11.705738,61.351181
86,0,51.059425,72.782433,146.015503,213.864166,34.043720,142.694656,255.676834,19.200865,107.125023,283.473572,-11.701967,61.326908
87,0,51.038708,72.807808,145.987442,213.854797,34.072453,142.646805,255.663513,19.172743,107.073898,283.439636,-11.740618,61.291874
88,0,51.078846,72.875137,145.958969,213.852509,34.073174,142.629395,255.685867,19.156006,107.032974,283.424591,-11.770506,61.261475
89,0,51.105675,72.897240,145.937363,213.868317,34.104290,142.580002,255.658783,19.134373,106.996628,283.379364,-11.825732,61.207558
90,0,51.080898,72.949417,145.934540,213.863846,34.107327,142.560562,255.610016,19.159109,106.962273,283.327301,-11.835291,61.184254
91,0,51.087936,72.969505,145.947922,213.861816,34.143261,142.570236,255.567581,19.133595,106.926857,283.273193,-11.833801,61.123882
92,0,51.089600,72.981087,145.933121,213.855011,34.165913,142.545380,255.558640,19.183680,106.911179,283.273560,-11.814412,61.125275
93,0,51.110104,73.008842,145.951401,213.852234,34.183105,142.559921,255.593781,19.167105,106.918762,283.282318,-11.798893,61.073025
94,0,51.100983,73.002609,145.942398,213.863846,34.190636,142.555496,255.625992,19.237875,106.898827,283.313538,-11.725616,61.074047
95,0,51.107605,72.995789,145.939407,213.904297,34.223270,142.562637,255.660767,19.279341,106.889473,283.351593,-11.676431,61.002007
96,0,51.130520,72.980652,145.975021,213.953613,34.213711,142.561234,255.672043,19.298862,106.919487,283.370697,-11.631514,61.024830
97,0,51.181763,73.003326,145.993881,213.988602,34.187534,142.582596,255.735016,19.279154,106.890862,283.414337,-11.579900,61.014362
98,0,51.197044,72.967567,145.981995,214.009766,34.166153,142.595932,255.736206,19.283367,106.861908,283.360413,-11.588876,60.893200
99,0,51.240795,72.928398,146.013580,214.039139,34.122673,142.606293,255.787933,19.238150,106.800140,283.297913,-11.658463,60.754059
100,0,51.259800,72.923012,146.013565,214.020920,34.053703,142.627151,255.789963,19.185591,106.764282,283.408936,-11.407083,60.585690
101,0,51.233810,72.870201,146.021301,214.056244,34.040054,142.636719,255.816483,19.119146,106.768921,283.311035,-11.776154,60.725910
102,0,51.293652,72.869781,145.981888,214.100922,34.013771,142.578857,255.844116,19.034018,106.768196,283.283264,-11.908274,60.719898
103,0,51.287273,72.868492,145.958755,214.098068,33.974232,142.545029,255.824890,18.919033,106.705551,283.279816,-12.036675,60.732128
104,0,51.316643,72.905678,145.928238,214.110779,33.972965,142.478241,255.836517,18.872829,106.677826,283.247894,-12.167064,60.710129
105,0,51.324871,72.934547,145.894302,214.124252,33.950405,142.465958,255.799805,18.827816,106.628525,283.211426,-12.240613,60.676586
106,0,51.333946,72.936554,145.853577,214.166809,33.933178,142.395767,255.794464,18.761105,106.547646,283.201202,-12.322501,60.611965
107,0,51.359455,72.961678,145.827164,214.240891,33.866379,142.419998,255.766449,18.715319,106.517616,283.271240,-12.109788,60.432873
108,0,51.351006,72.955811,145.813278,214.161285,33.890991,142.341461,255.777039,18.723841,106.474541,283.225586,-12.157735,60.380085
109,0,51.340199,72.964737,145.815338,214.246902,33.844582,142.375732,255.832352,18.653969,106.412437,283.196960,-12.118424,60.320377
110,0,51.341133,72.934700,145.853607,214.159485,33.848949,142.311432,255.793869,18.655344,106.383919,283.168427,-12.059449,60.271587
111,0,51.355011,72.954750,145.840271,214.242752,33.839111,142.314529,255.811661,18.685675,106.340050,283.211914,-11.973927,60.157871
112,0,51.350101,72.951790,145.865982,214.258636,33.826767,142.304871,255.778458,18.690046,106.289680,283.200073,-11.929293,60.121964
113,0,51.303486,72.939293,145.853134,214.240433,33.880093,142.315231,255.805908,18.729952,106.311234,283.131287,-12.159090,60.267525
114,0,51.341316,73.008659,145.835129,214.253372,33.900711,142.277679,255.768692,18.772768,106.278694,283.134277,-12.139473,60.271488
115,0,51.333202,73.032631,145.755096,214.239197,33.940456,142.258163,255.775986,18.818422,106.252151,283.122284,-12.109489,60.248676
116,0,51.311378,73.086212,145.734756,214.205612,34.003399,142.255295,255.767792,18.837551,106.260460,283.112213,-12.085444,60.246784
117,0,51.303284,73.165230,145.741379,214.183487,34.023647,142.241043,255.712357,18.874376,106.291931,283.035675,-12.085089,60.267059
118,0,51.287006,73.201561,145.736176,214.178940,34.053970,142.234940,255.675323,18.900244,106.287201,283.043274,-12.070807,60.288704
119,0,51.270752,73.208862,145.702850,214.136444,34.094418,142.230087,255.668884,18.926689,106.269997,282.994019,-12.029386,60.269600
120,0,51.236561,73.208427,145.685852,214.099945,34.079987,142.172958,255.630432,18.968809,106.240692,282.986755,-12.019603,60.217220
121,0,51.227535,73.246262,145.706406,214.095917,34.117687,142.173737,255.549484,18.956320,106.200760,282.971863,-12.000998,60.174431
122,0,51.196938,73.248924,145.705109,214.076813,34.118862,142.174423,255.532913,18.987072,106.212822,282.950989,-12.013164,60.192223
123,0,51.185020,73.253479,145.707123,214.057465,34.141106,142.191193,255.520050,19.009212,106.209541,282.998535,-11.717003,60.026409
124,0,51.167072,73.269463,145.691879,214.051468,34.140560,142.187775,255.531281,19.016371,106.201988,283.002808,-11.705011,60.017937
125,0,51.172142,73.272560,145.688675,214.067825,34.146389,142.161713,255.515961,19.008198,106.188850,282.932739,-11.942765,60.139820
126,0,51.177952,73.286301,145.682983,214.051407,34.157017,142.158127,255.519623,19.035130,106.191658,282.901428,-11.976426,60.182175
127,0,51.182510,73.287270,145.666885,214.029510,34.177032,142.182159,255.523529,19.045967,106.206902,282.896301,-11.984695,60.192768
128,0,51.164352,73.308937,145.636185,214.046432,34.219521,142.182785,255.573517,19.047459,106.193985,282.880890,-11.978453,60.199894
129,0,51.161331,73.329506,145.601654,214.082428,34.241470,142.143936,255.567932,19.048006,106.209488,283.011169,-11.743217,60.066311
130,0,51.191608,73.370964,145.600723,214.097168,34.304272,142.180725,255.591156,19.103035,106.236855,282.942352,-11.980904,60.262760
131,0,51.200008,73.375526,145.595078,214.140137,34.337742,142.205902,255.590881,19.143154,106.244675,283.007660,-11.924705,60.262436
132,0,51.241959,73.420036,145.614029,214.150177,34.368912,142.222885,255.629868,19.182878,106.247917,283.010864,-11.863731,60.272198
133,0,51.252991,73.415245,145.612396,214.178925,34.380859,142.210464,255.639938,19.268860,106.294853,283.048370,-11.835739,60.289780
134,0,51.274494,73.383179,145.615936,214.189774,34.416943,142.244705,255.739243,19.259003,106.283340,283.094543,-11.790164,60.289524
135,0,51.271557,73.383415,145.627777,214.235382,34.412209,142.250534,255.756409,19.268129,106.288116,283.137451,-11.728210,60.296722
136,0,51.274872,73.389931,145.631439,214.236557,34.431053,142.251236,255.772827,19.299908,106.279198,283.140808,-11.658442,60.275055
137,0,51.326454,73.356552,145.627228,214.249405,34.444382,142.253006,255.768295,19.370274,106.285690,283.127960,-11.675194,60.266422
138,0,51.339413,73.373474,145.623184,214.278397,34.465015,142.236053,255.798035,19.411734,106.278404,283.184906,-11.669829,60.259033
139,0,51.361382,73.382523,145.610291,214.297440,34.496342,142.231964,255.835678,19.419395,106.250160,283.208069,-11.681061,60.252213
140,0,51.327198,73.358704,145.568481,214.331879,34.501492,142.216339,255.838272,19.426716,106.259155,283.230438,-11.651718,60.272755
141,0,51.369308,73.355705,145.553787,214.372177,34.487724,142.226990,255.857651,19.406145,106.227394,283.246490,-11.675369,60.264557
142,0,51.427376,73.334679,145.556229,214.368835,34.476597,142.221558,255.882202,19.380287,106.288696,283.255005,-11.713431,60.294624
143,0,51.433529,73.318825,145.565430,214.370834,34.461174,142.255249,255.898209,19.325689,106.283409,283.297150,-11.788939,60.336491
144,0,51.433533,73.302704,145.570953,214.304779,34.469936,142.227097,255.910751,19.302250,106.323471,283.287750,-11.809784,60.369015
145,0,51.431984,73.271568,145.569931,214.328125,34.443756,142.236923,255.971436,19.279135,106.362946,283.352020,-11.852486,60.392689
146,0,51.461491,73.279091,145.540833,214.345154,34.431278,142.228180,255.987671,19.257908,106.374710,283.359741,-11.883615,60.405338
147,0,51.462502,73.255615,145.546326,214.373260,34.413254,142.259705,255.989380,19.263891,106.373337,283.351898,-11.895402,60.442142
148,0,51.467018,73.260468,145.562164,214.376266,34.424129,142.258316,256.031128,19.263918,106.408783,283.372162,-11.875093,60.459587
149,0,51.465611,73.255852,145.588211,214.381592,34.428833,142.272690,255.961151,19.248611,106.387222,283.359283,-11.895038,60.473602
150,0,51.489494,73.261620,145.604446,214.383072,34.432869,142.277374,256.024200,19.262333,106.418221,283.348297,-11.934071,60.463825
151,0,51.503021,73.281265,145.574127,214.360870,34.450554,142.264130,255.973251,19.249823,106.386772,283.436371,-11.649020,60.367020
152,0,51.474758,73.309921,145.582962,214.350189,34.480965,142.280975,255.954529,19.269258,106.377121,283.267731,-11.938578,60.475586
153,0,51.458195,73.347221,145.613617,214.329330,34.542007,142.263199,255.942200,19.309191,106.421631,283.243927,-11.929571,60.453972
154,0,51.433353,73.395706,145.595413,214.302948,34.578358,142.277649,255.898956,19.322186,106.394562,283.224274,-11.842532,60.445347
155,0,51.357460,73.398727,145.647247,214.268250,34.616074,142.295822,255.901718,19.410654,106.426025,283.183472,-11.812907,60.418655
156,0,51.360847,73.416626,145.653961,214.276138,34.653324,142.302856,255.897171,19.450832,106.434364,283.197113,-11.732669,60.460743
157,0,51.308167,73.389862,145.632629,214.231964,34.684566,142.318298,255.875702,19.558153,106.483002,283.209686,-11.642278,60.506718
158,0,51.320709,73.431786,145.657562,214.198990,34.689003,142.388168,255.820038,19.539089,106.524323,283.239655,-11.580113,60.566853
159,0,51.253521,73.378746,145.719376,214.153610,34.660679,142.400162,255.833054,19.569485,106.608101,283.278961,-11.575215,60.638348
160,0,51.158535,73.368942,145.752930,214.135056,34.671646,142.470871,255.853897,19.561239,106.703468,283.371368,-11.320690,60.623989
161,0,51.158001,73.366661,145.750702,214.095474,34.642654,142.537659,255.836670,19.526159,106.759453,283.401978,-11.354539,60.763493
162,0,51.131504,73.369095,145.773651,214.076706,34.611610,142.606964,255.836212,19.507179,106.882637,283.411224,-11.409661,60.883522
163,0,51.087524,73.378738,145.815948,214.034012,34.579781,142.674103,255.852585,19.436460,107.008575,283.309357,-11.761906,61.156914
164,0,51.080070,73.387939,145.820023,214.037567,34.569000,142.790344,255.859726,19.362190,107.151474,283.363739,-11.795590,61.353172
165,0,51.056248,73.366959,145.846466,214.038528,34.530769,142.919998,255.874008,19.328932,107.355392,283.432343,-11.875998,61.593578
166,0,50.973732,73.334534,145.886658,214.012192,34.483578,143.071060,255.962463,19.263670,107.586945,283.619476,-11.645535,61.779564
167,0,50.964359,73.298759,145.968216,214.060425,34.459541,143.300842,256.335632,19.152155,107.821709,283.705139,-11.744555,62.119297
168,0,51.081337,73.325951,145.839706,214.081406,34.404430,143.561111,256.242401,19.066780,108.214401,283.826508,-12.088200,62.637150
169,0,51.097900,73.311493,145.833374,214.107086,34.370937,143.854446,256.365509,19.005657,108.591469,284.031342,-12.190163,63.061626
170,0,51.088512,73.288605,145.847626,214.176285,34.336197,144.180481,256.586151,18.991806,109.050049,284.287079,-12.299275,63.545586
171,0,51.004051,73.229141,145.972809,214.260513,34.378647,144.525818,256.857758,18.984629,109.557137,284.701477,-12.115301,64.056335
172,0,51.059326,73.169571,145.964462,214.349396,34.390251,144.899094,257.092468,19.030600,110.041023,285.074432,-12.360744,64.840652
173,0,51.050335,73.143509,146.013794,214.453354,34.463848,145.246201,257.236725,19.167042,110.526566,285.600922,-12.066037,65.419151
174,0,51.100037,73.062477,145.999146,214.503815,34.501846,145.616989,257.428864,19.220364,111.087555,285.911011,-12.299559,66.046806
175,0,51.116657,73.031990,146.072159,214.585861,34.549500,145.946579,257.735931,19.262089,111.599930,286.256287,-12.168605,66.541962
176,0,51.121643,72.980362,146.216446,214.695114,34.554401,146.297852,257.855408,19.422550,112.117981,286.517975,-12.108307,67.001801
177,0,51.157276,72.932022,146.292419,214.756958,34.563343,146.679886,258.131989,19.439709,112.566406,286.648865,-12.031754,67.404549
178,0,51.174469,72.937790,146.398346,214.819763,34.585045,147.111313,258.261475,19.441324,112.976616,286.775696,-11.971988,67.836082
179,0,51.176064,72.915146,146.476593,214.893967,34.603138,147.533005,258.314545,19.573046,113.469856,286.803406,-11.991528,68.336807
180,0,51.197922,73.066917,146.626144,214.988113,34.699661,147.920090,258.512512,19.559765,114.044594,286.876587,-12.066802,68.816833
181,0,51.159775,73.107803,146.766830,215.007629,34.703259,148.449020,258.722351,19.564661,114.703339,286.949036,-12.196877,69.325104
182,0,51.071342,73.183434,146.846237,215.009659,34.788570,148.894684,258.853821,19.678247,115.314896,286.999603,-12.231837,69.923927
183,0,51.064537,73.009453,146.865524,214.998718,34.876869,149.341629,258.984283,19.777168,115.966721,287.207214,-11.963382,70.397125
184,0,51.025734,72.994781,146.929398,214.969910,34.935356,149.809753,259.145325,19.901361,116.560966,287.400208,-11.919423,70.975426
185,0,50.927887,73.162933,147.140182,214.924332,34.967163,150.235443,259.279663,20.029867,117.196739,287.430573,-12.076104,71.621567
186,0,50.932072,72.930489,147.129410,214.927017,34.998081,150.597473,259.417114,20.172695,117.697365,287.613129,-11.947095,72.080902
187,0,50.968510,72.892899,147.270889,214.940216,34.975182,150.935120,259.534027,20.253202,118.166313,287.775421,-11.765708,72.408279
188,0,51.002270,72.863205,147.400818,214.968948,34.964542,151.260193,259.723907,20.345932,118.595543,287.968079,-11.617973,72.717453
189,0,51.077324,72.846893,147.573792,215.054825,34.969986,151.550430,259.858978,20.524807,118.876358,288.080444,-11.446158,72.891930
190,0,51.328579,72.783607,147.388885,215.113678,34.995239,151.769836,260.036377,20.661983,119.146767,288.079254,-11.244695,72.953598
191,0,51.434330,72.869270,147.534454,215.188828,35.033894,151.916611,260.140900,20.830177,119.278473,288.099304,-11.000112,72.908752
192,0,51.384960,72.966507,147.922714,215.240616,35.118065,152.001755,260.193665,21.032516,119.278152,288.094116,-10.650887,72.717163
193,0,51.717506,72.940063,147.737793,215.263870,35.163326,152.076981,260.231750,21.268393,119.235191,288.084290,-10.232976,72.459915
194,0,51.582859,72.985825,148.203033,215.307953,35.200134,152.086899,260.238678,21.506214,119.136826,287.980865,-9.855074,72.218460
195,0,51.585518,72.944984,148.413147,215.330811,35.238075,152.107956,260.227386,21.702074,118.984360,288.063629,-9.162801,71.849640
196,0,51.760212,72.812851,148.306122,215.363647,35.229103,152.074387,260.204254,21.884165,118.842743,287.993469,-8.785579,71.515495
197,0,51.649704,72.848778,148.774277,215.419922,35.222878,152.086166,260.164429,22.084291,118.691475,287.802216,-8.643475,71.210052
198,0,51.658424,72.812737,148.986404,215.468048,35.257523,152.086487,260.155701,22.266798,118.590691,287.741272,-8.255459,70.869736
199,0,51.874790,72.720062,148.895309,215.577866,35.305244,152.040863,260.218109,22.438744,118.465263,287.881592,-7.610250,70.534576
200,0,51.939751,72.693390,149.025421,215.652878,35.345890,152.038895,260.244080,22.647821,118.367416,287.813263,-7.534130,70.420525
201,0,51.978588,72.608238,149.226959,215.741333,35.346024,151.988663,260.326691,22.829786,118.273468,288.069855,-6.770812,70.096069
202,0,51.896053,72.644409,149.684433,215.820923,35.334427,151.994995,260.414612,23.071249,118.136246,288.068054,-6.446300,69.845779
203,0,51.938873,72.549103,149.898239,215.851456,35.302158,152.028778,260.488098,23.285980,118.062538,288.247711,-5.877495,69.600899
204,0,51.958740,72.454292,150.139282,215.905853,35.236259,152.033554,260.526733,23.478155,118.006050,288.339203,-5.375325,69.436905
205,0,51.972958,72.295029,150.314270,215.909027,35.180546,152.094498,260.533356,23.675453,117.994011,288.330444,-5.172258,69.426453
206,0,51.902790,72.185356,150.517853,215.924133,35.107830,152.187897,260.581238,23.861784,118.041588,288.468781,-4.704804,69.323738
207,0,51.839966,72.080841,150.689072,215.904953,35.069130,152.336395,260.531250,23.972248,118.116920,288.547180,-4.313890,69.317406
208,0,51.791222,71.953468,150.803802,215.886871,34.998741,152.456696,260.555359,24.087614,118.241585,288.650940,-4.014374,69.405411
209,0,51.717075,71.857895,150.951416,215.878448,34.898453,152.549332,260.588409,24.131575,118.388603,288.802063,-3.816492,69.530899
210,0,51.710892,71.740013,150.988037,215.840881,34.829350,152.647705,260.565338,24.089739,118.569435,289.049744,-3.464822,69.590187
211,0,51.688412,71.682777,151.081848,215.840042,34.716652,152.719696,260.605743,24.037977,118.693176,289.197937,-3.481738,69.743477
212,0,51.649147,71.620041,151.128677,215.842545,34.647785,152.749054,260.611572,23.917454,118.735092,289.259583,-3.697474,69.873474
213,0,51.732506,71.602097,151.117722,215.853043,34.535915,152.699997,260.669861,23.747028,118.727806,289.277710,-3.941521,69.935539
214,0,51.716427,71.534142,151.176300,215.901367,34.429794,152.635193,260.655243,23.589733,118.657181,289.199951,-4.447224,69.972198
215,0,51.766220,71.537804,151.174377,215.908051,34.323887,152.532394,260.580566,23.405161,118.510033,289.161499,-4.506412,69.751953
216,0,51.814247,71.479958,151.139343,215.885208,34.209850,152.410721,260.566528,23.233706,118.343689,288.955505,-5.004353,69.649857
217,0,51.842449,71.420906,151.108032,215.913162,34.062160,152.278442,260.491180,23.012747,118.200592,288.888245,-5.239696,69.508522
218,0,51.847244,71.372528,151.049637,215.896698,33.942928,152.203339,260.514893,22.836132,118.061089,288.806610,-5.432892,69.333839
219,0,51.841232,71.272888,150.963120,215.929138,33.823639,152.073730,260.454132,22.699106,117.917992,288.770386,-5.617229,69.199524
220,0,51.856201,71.224174,150.873810,215.976257,33.756992,151.923065,260.447632,22.574610,117.751785,288.879608,-5.497212,68.972687
221,0,51.850281,71.151268,150.709976,215.994904,33.708275,151.726471,260.494598,22.480793,117.565819,288.821014,-5.629168,68.762695
222,0,51.900425,71.142578,150.533188,216.003952,33.696205,151.526489,260.525909,22.408325,117.361427,288.790894,-6.040523,68.680641
223,0,51.923119,71.108879,150.373764,216.043671,33.704731,151.272171,260.576874,22.385315,117.103912,288.845642,-5.786678,68.411789
224,0,51.957069,71.146820,150.194656,216.059052,33.725952,151.043015,260.581085,22.361835,116.844902,288.701263,-6.143470,68.251152
225,0,52.044037,71.211044,150.096939,216.068344,33.780922,150.769974,260.561096,22.328453,116.592155,288.610565,-6.247758,67.922630
226,0,52.134422,71.329269,149.984451,216.143799,33.831867,150.564682,260.557037,22.305140,116.295509,288.536804,-6.365743,67.657722
227,0,52.161091,71.412254,149.903030,216.204239,33.884193,150.345596,260.590851,22.275032,116.018349,288.490234,-6.169423,67.210495
228,0,52.284317,71.503937,149.785095,216.289261,33.955334,150.180679,260.611267,22.246040,115.783836,288.361237,-6.197929,66.936867
229,0,52.282753,71.564133,149.835846,216.340256,33.978767,150.043732,260.598206,22.271769,115.592758,288.078949,-6.266195,66.876411
230,0,52.367130,71.601776,149.764328,216.331879,33.986446,149.947693,260.548462,22.245266,115.438774,287.950012,-6.334166,66.687271
231,0,52.348488,71.621376,149.780731,216.343994,34.004925,149.913971,260.534485,22.232807,115.379982,287.840179,-6.331543,66.523537
232,0,52.317944,71.612663,149.772446,216.336090,33.999187,149.869171,260.504639,22.245756,115.304764,287.786163,-6.339833,66.497292
233,0,52.322254,71.638504,149.807129,216.333008,33.978741,149.905533,260.487366,22.220469,115.336052,287.747742,-6.356400,66.460068
234,0,52.238728,71.631332,149.821533,216.320038,34.000084,149.961075,260.496552,22.178915,115.385193,287.704498,-6.400034,66.479355
235,0,52.224926,71.636574,149.804016,216.325211,34.034462,149.995224,260.489868,22.160261,115.374931,287.655518,-6.421508,66.463875
236,0,52.220802,71.660599,149.819290,216.352158,34.046227,150.017151,260.492798,22.147581,115.390213,287.570892,-6.503995,66.458824
237,0,52.256119,71.700485,149.825378,216.365234,34.068176,150.047302,260.482147,22.121746,115.379784,287.512177,-6.546679,66.448044
238,0,52.266518,71.727997,149.875519,216.410339,34.106987,150.080185,260.494598,22.095640,115.351135,287.503387,-6.454935,66.293823
239,0,52.313660,71.739609,149.880829,216.454010,34.114304,150.082138,260.532684,22.039740,115.304474,287.455719,-6.646533,66.105194
240,0,52.389240,71.801743,149.818069,216.514511,34.167324,150.060104,260.565460,22.004103,115.254883,287.402679,-6.757185,66.019424
241,0,52.457413,71.809021,149.792236,216.606186,34.178230,150.009476,260.592224,21.996979,115.183739,287.332428,-6.800843,65.920357
242,0,52.528732,71.868385,149.773285,216.694748,34.227436,150.020523,260.632050,21.976280,115.091675,287.297913,-6.805661,65.783836
243,0,52.552719,71.882431,149.736023,216.730820,34.275665,150.002747,260.662903,21.990568,115.027229,287.256470,-6.862295,65.704018
244,0,52.631458,71.922096,149.676117,216.769196,34.328342,149.943314,260.678925,21.978945,114.941925,287.239960,-6.831075,65.596123
245,0,52.612152,71.921913,149.620163,216.801880,34.353867,149.925339,260.690704,22.017637,114.876877,287.197235,-6.826828,65.488419
246,0,52.642818,71.945747,149.553421,216.822174,34.401543,149.909119,260.703308,22.017904,114.831940,287.206604,-6.761207,65.430740
247,0,52.605309,71.943733,149.538925,216.822891,34.446377,149.858109,260.674316,22.053804,114.787704,287.178619,-6.701971,65.377396
248,0,52.591217,71.927078,149.444107,216.788803,34.481300,149.817429,260.657867,22.097471,114.719612,287.147614,-6.653782,65.250679
249,0,52.560944,71.958794,149.428375,216.791748,34.489906,149.765533,260.548492,22.107849,114.614761,287.048798,-6.672143,65.178795
250,0,52.521431,71.939049,149.438049,216.759811,34.474148,149.749527,260.513214,22.087959,114.534424,286.820740,-6.960014,65.141800
251,0,52.487083,71.922279,149.462341,216.738251,34.445103,149.717560,260.462524,22.073839,114.423508,286.965881,-6.927540,65.083557
252,0,52.486015,71.877914,149.506729,216.708313,34.423168,149.689514,260.404236,22.074976,114.311531,286.603516,-6.943287,64.923569
253,0,52.460888,71.853561,149.550812,216.635468,34.361397,149.673813,260.322144,22.003922,114.232468,286.470306,-7.005292,64.773239
254,0,52.442223,71.847519,149.590622,216.634949,34.327106,149.666534,260.275574,21.920710,114.150970,286.359558,-7.117694,64.733673
255,0,52.393528,71.920021,149.676727,216.612946,34.326305,149.652771,260.220703,21.805216,114.135941,286.231171,-7.246596,64.686348
256,0,52.445793,71.979187,149.602356,216.608994,34.302368,149.638824,260.188202,21.708801,114.102776,286.131653,-7.398092,64.662697
257,0,52.473907,72.051643,149.577911,216.612534,34.292755,149.619537,260.139618,21.625477,114.079094,286.018250,-7.590383,64.646736
258,0,52.466331,72.130913,149.550415,216.616547,34.309593,149.594635,260.135468,21.581457,114.078178,286.048248,-7.367886,64.563362
259,0,52.455029,72.145813,149.554169,216.589554,34.304447,149.607559,260.111145,21.553648,114.087219,285.885986,-7.726596,64.664742
260,0,52.442230,72.184570,149.564377,216.579514,34.317036,149.640701,260.077911,21.555408,114.099510,285.867676,-7.714217,64.669243
261,0,52.388065,72.138741,149.552368,216.553635,34.327957,149.653717,260.063721,21.575190,114.100822,285.759979,-7.658010,64.645699
262,0,52.376659,72.094894,149.557449,216.528900,34.319138,149.695358,260.048187,21.593973,114.110435,285.857910,-7.290245,64.537827
263,0,52.342388,72.089348,149.588669,216.520630,34.323132,149.698181,260.007446,21.643515,114.112938,285.814056,-7.228726,64.510880
264,0,52.310783,72.066330,149.620667,216.509399,34.292587,149.734390,260.027313,21.652464,114.118385,285.777740,-7.170444,64.505409
265,0,52.327271,72.063202,149.637787,216.516968,34.300186,149.719849,260.019928,21.642969,114.116249,285.597534,-7.504559,64.589523
266,0,52.328846,72.098427,149.643707,216.516495,34.295712,149.727997,260.020691,21.627762,114.073280,285.571716,-7.536839,64.548714
267,0,52.351139,72.104065,149.590820,216.550217,34.296551,149.699539,260.021942,21.590797,114.016891,285.531219,-7.602976,64.510986
268,0,52.344963,72.099464,149.559875,216.568710,34.269859,149.645355,260.023071,21.513103,113.983284,285.489624,-7.665007,64.432472
269,0,52.387417,72.150627,149.514877,216.592972,34.263229,149.617249,260.016388,21.440102,113.910835,285.379913,-7.814035,64.377541
270,0,52.402950,72.152466,149.533035,216.587402,34.219505,149.567444,260.002228,21.317923,113.839134,285.236115,-7.815623,64.474770
271,0,52.406887,72.151535,149.506409,216.585068,34.174782,149.535278,259.958771,21.216646,113.772598,285.186951,-7.722944,64.267426
272,0,52.411716,72.195900,149.505722,216.593643,34.129036,149.481705,259.924469,21.114939,113.670074,285.062378,-7.954499,64.215225
273,0,52.413040,72.165810,149.407104,216.566635,34.094975,149.415222,259.906006,21.015305,113.579224,284.997925,-8.286001,63.973412
274,0,52.428322,72.213539,149.362167,216.563339,34.067394,149.322159,259.836884,20.909027,113.476425,284.884766,-8.289824,64.019051
275,0,52.391449,72.205078,149.386932,216.533386,34.041218,149.299072,259.784485,20.835922,113.381996,284.666382,-8.788645,63.854122
276,0,52.390774,72.181099,149.313797,216.517075,33.977932,149.204697,259.808136,20.767088,113.314110,284.605499,-8.839656,63.742741
277,0,52.480099,72.018143,149.130432,216.521210,33.944317,149.114975,259.748169,20.741684,113.200050,284.517273,-8.933445,63.642330
278,0,52.441963,71.984406,149.113556,216.507507,33.895817,149.038300,259.818451,20.560717,113.100105,284.575470,-8.714256,63.525990
279,0,52.409767,71.955772,149.090942,216.482086,33.858047,148.948685,259.754395,20.488508,112.948608,284.508179,-8.804600,63.385830
280,0,52.378559,71.911018,149.041031,216.442474,33.837685,148.852493,259.721222,20.411140,112.834976,284.402344,-8.959671,63.266628
281,0,52.354362,71.925980,148.996567,216.429657,33.842495,148.737946,259.643494,20.335749,112.690147,284.088684,-9.345104,63.162708
282,0,52.333534,72.012047,148.941971,216.377136,33.847603,148.596741,259.555206,20.284916,112.528038,283.972198,-9.469060,63.038132
283,0,52.300297,72.053658,148.843643,216.350876,33.855778,148.455338,259.486420,20.266399,112.358612,283.808289,-9.573576,62.875332
284,0,52.359566,72.092934,148.811676,216.308762,33.866787,148.337662,259.335632,20.301294,112.182266,283.713379,-9.613163,62.669044
285,0,52.293678,72.113892,148.708939,216.305435,33.895058,148.202576,259.238922,20.273294,112.016197,283.585236,-9.647917,62.448853
286,0,52.284992,72.128242,148.670929,216.251373,33.920666,148.054810,259.151825,20.311159,111.852547,283.453766,-9.670607,62.221043
287,0,52.259464,72.145134,148.591919,216.220337,33.943657,147.894379,259.096588,20.287100,111.675354,283.357635,-9.619073,62.027222
288,0,52.200680,72.169350,148.569244,216.193542,33.987167,147.742386,259.062256,20.244947,111.489655,283.199493,-9.691846,61.812748
289,0,52.237053,72.220772,148.437744,216.138321,33.979912,147.605530,259.043762,20.240513,111.296768,283.126160,-9.667606,61.633434
290,0,52.182381,72.475288,148.462128,216.141800,34.015305,147.439529,258.962891,20.250088,111.152802,283.176666,-9.411436,61.408855
291,0,52.189590,72.344299,148.340149,216.114288,34.083351,147.343765,258.916962,20.269024,110.984039,282.987762,-9.550750,61.481464
292,0,52.227177,72.388489,148.243805,216.109039,34.125607,147.208771,258.866394,20.329929,110.836143,282.935150,-9.489667,61.324852
293,0,52.228634,72.394524,148.217453,216.086548,34.139423,147.085907,258.830017,20.330389,110.703751,282.893982,-9.486900,61.202087
294,0,52.226784,72.439957,148.116226,216.087265,34.161777,146.983353,258.775696,20.334852,110.569679,282.876251,-9.566133,60.907906
295,0,52.167583,72.405159,148.111191,216.080704,34.198082,146.904037,258.739990,20.383810,110.440544,283.085754,-9.516343,60.859196
296,0,52.136410,72.332253,148.063263,216.039474,34.188011,146.790634,258.674866,20.386358,110.311432,283.047272,-9.495690,60.696335
297,0,52.129490,72.320305,148.008774,215.995697,34.181221,146.713852,258.589478,20.464226,110.228378,282.981171,-9.457749,60.570656
298,0,52.100578,72.283310,147.999954,215.961243,34.130222,146.603363,258.537445,20.439571,110.100861,282.670868,-9.486762,60.385395
299,0,52.106400,72.253494,147.885223,215.940033,34.099537,146.552124,258.474548,20.401497,109.974747,282.601593,-9.504881,60.232628
300,0,52.028145,72.210617,147.935287,215.904861,34.049702,146.455994,258.382935,20.351984,109.856987,282.505188,-9.584089,60.093670
301,0,52.010174,72.183830,147.806992,215.872833,33.981091,146.354355,258.339447,20.244865,109.732857,282.417480,-9.710893,59.963024
302,0,51.952614,72.163147,147.791229,215.837616,33.942413,146.230530,258.310669,20.117908,109.590118,282.437164,-9.580371,59.766781
303,0,51.985817,72.186539,147.732529,215.819366,33.896374,146.092529,258.267212,20.019960,109.444756,282.339111,-9.777652,59.610291
304,0,51.908741,72.193855,147.677811,215.807892,33.874680,145.951828,258.200684,19.960218,109.296242,282.235443,-9.843945,59.443489
305,0,51.883266,72.194275,147.604950,215.744415,33.844391,145.776230,258.145477,19.937500,109.114853,282.142029,-9.879387,59.239361
306,0,51.916683,72.218376,147.537766,215.852539,33.796898,145.695572,258.080139,19.935184,108.943970,281.872711,-10.143575,59.080524
307,0,51.858490,72.189240,147.486069,215.685425,33.832523,145.504868,258.007599,19.943516,108.790527,281.771729,-10.052046,58.821953
308,0,51.799633,72.142723,147.485214,215.610077,33.831581,145.355759,257.895447,19.981857,108.614311,281.643280,-9.964040,58.631084
309,0,51.785568,72.097824,147.485718,215.579132,33.809135,145.300690,257.834564,20.040794,108.457031,281.682098,-9.544790,58.441399
310,0,51.721077,72.000847,147.552673,215.512909,33.764713,145.221634,257.818878,20.099190,108.309921,281.431396,-9.696423,58.332752
311,0,51.708019,71.923904,147.648071,215.492828,33.705940,145.189285,257.745453,20.106815,108.257706,281.538147,-9.298849,58.218826
312,0,51.747284,71.915886,147.639908,215.418930,33.645138,145.252167,257.708557,20.119720,108.273689,281.365173,-9.486904,58.245010
313,0,51.750843,71.820267,147.754410,215.397385,33.559750,145.396957,257.655121,20.141268,108.420761,281.386658,-9.221292,58.545898
314,0,51.712273,71.736717,147.894226,215.329361,33.473354,145.666946,257.659515,20.129234,108.733688,281.496063,-9.238585,58.658848
315,0,51.634941,71.899178,148.219406,215.394440,33.308052,146.114853,257.660553,20.097736,109.193863,281.832550,-8.868915,59.070980
316,0,51.680561,71.604477,148.370621,215.245499,33.169495,146.499725,257.624634,20.098623,109.816704,282.073578,-8.882040,59.716805
317,0,51.675056,71.401840,148.412781,215.178757,32.980690,147.117859,257.667969,20.027985,110.616753,282.357910,-9.193894,60.727093
318,0,51.556229,71.419044,148.926544,215.180984,32.834446,147.884491,257.759430,19.904085,111.707443,282.807343,-8.930751,61.847828
319,0,51.429611,71.345436,149.368149,214.974960,32.613838,148.927139,257.811981,19.818146,112.964905,283.228363,-9.048356,63.344559
320,0,51.132896,71.310806,150.078033,214.741226,32.462784,150.071945,257.821594,19.681684,114.406876,283.565491,-9.312832,65.176765
321,0,50.951687,71.219017,150.515961,214.539062,32.306381,151.235382,257.866699,19.633844,116.082626,284.184570,-9.281078,66.862473
322,0,50.756424,71.072014,150.976654,214.309616,32.282360,152.584229,257.936554,19.647396,117.843819,284.844391,-9.348845,68.986115
323,0,50.551857,70.896713,151.466339,214.125107,32.288013,154.033508,258.055756,19.694923,119.764290,285.433655,-9.392769,71.162453
324,0,50.303993,70.843857,152.020142,213.914963,32.262936,155.502426,258.250366,19.737255,121.681015,286.143036,-9.249736,73.407440
325,0,50.239086,70.623238,152.176514,213.875427,32.257057,157.181702,258.495544,19.572157,123.736275,286.906891,-9.175263,75.705727
326,0,49.992088,70.475136,152.750687,213.863831,32.283409,158.721954,258.897095,19.687826,125.843781,287.690094,-9.307754,78.209366
327,0,49.815346,70.298286,153.186157,213.789276,32.297436,160.238220,259.234985,19.779015,127.911598,288.700684,-9.211766,80.594910
328,0,49.606247,70.219040,153.844818,213.758392,32.287243,161.693878,259.479919,20.048658,129.844162,289.793732,-8.971957,82.947197
329,0,49.621418,69.981102,154.163589,213.680786,32.211861,163.176712,260.020477,19.724764,131.958130,290.804901,-8.850273,85.310684
330,0,49.616268,69.834839,154.528137,213.699951,32.112106,164.534088,260.375488,19.668131,133.948868,291.792786,-9.081168,87.769180
331,0,49.651913,69.642647,154.733078,213.727890,32.007996,165.936401,260.775085,19.614275,135.828232,292.651306,-9.162830,90.024033
332,0,49.672951,69.574867,154.933594,213.756470,31.882133,167.295670,261.229614,19.469141,137.642227,293.354950,-9.342956,91.986916
333,0,49.738449,69.474609,154.964783,213.894730,31.821880,168.457626,261.717621,19.370274,139.441635,293.601013,-9.592315,93.367668
334,0,49.871250,69.445190,154.937851,213.971832,31.838522,169.580872,262.463135,19.273996,141.279068,292.782227,-10.700338,93.937668
335,0,50.014282,69.430817,154.872803,214.210419,31.804785,170.681625,262.851898,19.229877,142.762970,290.973602,-11.824656,93.620216
336,0,50.203217,69.424889,154.658020,214.545792,31.757534,171.640808,263.635956,19.182957,143.987350,289.242432,-12.805919,93.020645
337,0,50.463390,69.455635,154.458572,214.793106,31.668663,172.364960,264.268036,19.127270,144.948288,286.765686,-13.693509,92.390808
338,0,50.865498,69.472954,154.220840,215.163879,31.667776,172.935654,264.921997,19.202833,145.862946,284.384674,-14.538504,91.860237
339,0,51.214809,69.361481,153.809067,215.554855,31.652651,173.384521,265.681396,19.292728,146.684814,281.895782,-15.221509,91.521347
340,0,51.656425,69.318146,153.444214,215.958923,31.604164,173.624557,266.475647,19.391655,147.544220,279.444977,-15.606388,91.330795
341,0,51.958008,69.230339,153.179016,216.305069,31.591579,173.801529,267.153778,19.554941,148.278214,276.574921,-16.149715,91.481201
342,0,52.306099,69.088676,152.796997,216.733322,31.623274,173.942215,267.747772,19.702187,149.036377,273.755096,-16.592422,91.830086
343,0,52.586479,68.825562,152.169815,216.866806,31.689167,174.081635,268.086121,19.707523,149.662567,270.812195,-16.707560,92.183983
344,0,52.584854,68.844803,152.069138,216.897903,31.748377,174.213211,268.370331,19.873150,150.143494,267.982727,-16.538284,92.599068
345,0,52.495193,68.799461,151.833923,216.824219,31.902332,174.356705,268.486755,20.080837,150.439041,265.301422,-16.159813,93.007782
346,0,52.381638,68.817940,151.632721,216.717087,32.059830,174.490219,268.590881,20.295574,150.673965,262.924866,-15.730752,93.476738
347,0,52.255798,68.783493,151.355087,216.595703,32.272190,174.668182,268.688568,20.564514,150.849991,260.875977,-15.177113,93.880081
348,0,52.119556,68.800476,151.238174,216.568741,32.469830,174.847107,268.786194,20.910965,150.836975,258.579926,-14.749903,94.352562
349,0,52.042419,68.836876,151.155777,216.540268,32.654537,175.000427,268.907104,21.167732,150.732986,256.088959,-14.815504,95.590469
350,0,52.000504,68.897636,151.108353,216.653931,32.803280,175.130524,269.135956,21.260056,150.570023,253.851410,-14.391811,95.984818
351,0,52.150627,69.010620,151.153732,216.776688,32.862267,175.314301,269.353638,21.189642,150.351883,251.976669,-14.133374,96.457436
352,0,52.352261,69.087662,151.110550,217.010620,32.896702,175.457077,269.733673,20.981541,150.097488,249.861099,-13.979231,96.929543
353,0,52.641071,69.168098,151.075943,217.305206,32.952427,175.474564,270.199829,20.681738,149.715027,247.993790,-13.683712,97.401733
354,0,53.084179,69.276237,151.005081,217.789017,33.023514,175.323975,271.082214,20.339451,149.005051,246.032837,-13.494509,97.663361
355,0,53.583569,69.400673,150.867722,218.256668,33.150414,174.833069,271.338074,20.024157,148.122482,243.905060,-13.329907,97.759666
356,0,54.195000,69.518524,150.758179,218.881088,33.152237,174.250549,271.846069,19.432201,146.776352,241.642166,-13.282076,97.890724
357,0,54.840820,69.568321,150.455841,219.727386,33.075935,173.501953,272.394867,18.580795,144.981384,238.888855,-13.318994,98.075142
358,0,55.465538,69.650528,150.185669,220.638611,32.913864,172.615372,272.949249,17.272673,142.981201,235.819275,-12.851176,98.011574
359,0,56.263504,69.798515,149.801544,221.372314,32.696453,171.485657,273.127960,15.892096,140.698761,233.124008,-12.959512,98.268547
360,0,57.120731,69.746841,149.113678,222.171478,32.332901,170.302643,273.237244,14.242267,138.442764,230.444565,-12.985153,98.356026
361,0,57.912502,69.783821,148.328690,222.986862,31.955360,168.990616,273.343475,12.380789,136.187439,227.068939,-11.479568,97.840118
362,0,58.451347,69.739098,147.692108,223.733246,31.580807,167.725616,273.033783,10.503841,133.744751,224.286987,-11.598460,98.317955
363,0,58.932636,69.724648,147.054138,224.446945,31.210096,166.508972,272.330322,8.724214,131.344788,221.581451,-11.875786,99.051926
364,0,59.426403,69.628372,146.276535,225.293869,30.755732,165.262512,271.921783,6.704555,128.730804,218.906601,-12.442297,99.907341
365,0,60.025616,69.453461,145.320496,226.051849,30.271383,164.011780,271.144348,4.441128,126.338486,216.496521,-12.976208,100.346199
366,0,60.655849,69.342293,144.495880,226.910416,29.794668,162.844650,270.222137,2.106337,124.058571,214.005661,-11.785669,101.060318
367,0,61.375061,69.227722,143.656723,227.779282,29.230486,161.673828,269.168854,-0.171438,121.707642,212.418243,-14.501807,101.740135
368,0,62.122894,69.027420,142.841339,228.689423,28.764832,160.495056,267.904480,-2.273869,119.317871,211.300140,-18.438311,103.219490
369,0,62.952644,68.880760,142.084808,229.656540,28.293489,159.476181,266.449524,-4.416615,117.028069,,,
370,0,63.688709,68.414108,141.074081,230.586990,27.858139,158.502243,264.352875,-6.731762,114.955994,,,
371,0,64.229698,68.329330,140.916000,231.196106,27.392170,157.715363,262.581604,-8.446587,113.191902,,,
372,0,64.745720,68.137856,140.521790,231.793213,27.038532,157.066071,261.175354,-9.626302,111.866837,,,
373,0,65.115448,68.079422,140.269348,232.360382,26.737282,156.516998,259.488068,-10.864298,110.534363,,,
374,0,65.403328,68.103462,140.057114,232.718857,26.384781,156.133652,258.117737,-12.039272,109.925377,,,
375,0,65.717392,68.230247,139.921051,232.976852,26.029800,155.919174,256.555603,-13.266461,109.348999,,,
376,0,65.939354,68.377586,139.783783,233.116669,25.760750,155.831406,255.502106,-14.267669,109.201759,,,
377,0,66.177963,68.495872,139.704361,233.348083,25.561047,155.770142,254.557037,-15.019892,109.055672,,,
378,0,66.436378,68.589729,139.647003,233.572021,25.462156,155.619217,253.682312,-15.733707,108.877907,,,
379,0,66.664375,68.670952,139.628159,233.825378,25.335375,155.388321,252.930588,-16.336452,108.591438,,,
380,0,66.977341,68.696472,139.515869,234.141479,25.306759,155.027512,252.384216,-16.865511,108.287132,,,
381,0,67.319862,68.718750,139.258224,234.383392,25.273174,154.457153,251.864883,-17.408541,107.871521,,,
382,0,67.678062,68.816391,139.034821,234.679703,25.252325,153.747879,251.404968,-17.911463,107.311920,,,
383,0,68.031456,68.890968,138.654846,235.112976,25.211155,152.777664,251.028656,-18.465313,106.501740,,,
384,0,68.358490,68.974022,138.316528,235.301239,25.011648,151.800644,250.638901,-18.879526,105.541344,,,
385,0,68.602898,68.966370,137.921844,235.546997,24.798519,150.875015,250.091110,-19.326166,104.433273,,,
386,0,68.740227,68.929626,137.535110,235.774902,24.347584,149.745270,249.624222,-19.769854,103.471535,,,
387,0,68.810890,68.885674,137.198883,235.892685,24.164135,148.846283,249.299942,-20.235285,102.744896,,,
388,0,68.884811,68.875534,136.810532,235.838379,24.137009,148.120453,248.902374,-20.717274,102.102165,,,
389,0,68.966087,68.878036,136.478409,235.853439,23.993658,147.372116,248.562836,-21.144552,101.511139,,,
390,0,69.036278,68.913994,136.160385,235.846191,23.850182,146.657944,248.250000,-21.450970,100.936440,,,
391,0,69.086723,68.940956,135.921860,235.959671,23.664675,145.859940,247.964096,-21.609077,100.340187,,,
392,0,69.048637,68.904633,135.891052,236.092865,23.735342,145.341965,247.810577,-21.580776,99.717003,,,
393,0,69.044243,68.851402,135.861099,236.159012,23.819534,144.880203,247.668915,-21.444212,99.055801,,,
394,0,68.994385,68.754654,135.823929,236.284515,23.877319,144.340210,247.540253,-21.330303,98.489067,,,
395,0,69.032219,68.696205,135.860260,236.265778,24.064745,144.124573,247.489929,-21.186958,97.963783,,,
396,0,69.088257,68.720314,135.877640,236.335587,24.122341,143.910889,247.478561,-21.153809,97.744499,,,
397,0,69.196411,68.706154,135.771729,236.410355,24.163076,143.772614,247.538757,-21.166975,97.616043,,,
398,0,69.278473,68.756218,135.758438,236.488113,24.128445,143.704681,247.633499,-21.247423,97.586967,,,
399,0,69.444527,68.770554,135.808456,236.617569,24.065311,143.743011,247.745117,-21.305819,97.647865,,,
400,0,69.581245,68.677620,135.878845,236.722702,23.940598,143.950089,247.866806,-21.357418,97.786949,,,
401,0,69.783264,68.422371,135.735962,236.813858,23.893978,144.286163,248.051025,-21.409428,98.102623,,,
402,0,69.836655,68.342377,135.965836,236.949051,23.745737,144.623367,248.175995,-21.413525,98.649124,,,
403,0,69.791748,68.228188,136.179352,236.811447,23.774527,145.351257,248.403458,-21.401283,99.466057,,,
404,0,69.735451,68.162003,136.458496,236.691818,23.858570,146.279999,248.688889,-21.261206,100.536064,,,
405,0,69.605202,68.192184,137.103928,236.520004,24.096277,147.658676,249.014618,-21.030485,101.915588,,,
406,0,69.390572,68.129158,137.553635,236.145325,24.447718,149.238190,249.215454,-20.675762,103.736061,,,
407,0,69.041954,68.081741,138.119370,235.601837,25.048286,151.364471,249.616013,-20.239809,106.011391,,,
408,0,68.671028,68.025246,138.664948,235.051407,25.479366,153.561310,249.853439,-19.729822,108.576385,,,
409,0,68.142349,68.006866,139.231277,234.268295,26.285872,156.216553,250.023331,-19.238071,111.576599,,,
410,0,67.627838,68.055435,139.890900,233.450912,26.908981,158.893021,250.258591,-18.720907,115.066666,,,
411,0,67.000206,68.116318,140.488876,232.400803,27.907976,161.922852,250.471115,-18.127033,118.684593,,,
412,0,66.389030,68.135811,141.179047,231.487885,28.725389,164.925430,250.745499,-17.383930,122.266075,,,
413,0,65.916695,68.178505,141.849487,230.739410,29.504021,167.715103,251.128799,-16.545334,125.856194,,,
414,0,65.513985,68.159622,142.514877,229.808228,30.626852,170.644882,251.571152,-15.560806,129.239929,,,
415,0,65.429016,68.045921,142.835266,229.144257,31.549383,173.086731,252.052185,-14.469771,132.465683,,,
416,0,65.048950,68.120331,143.630814,228.152161,32.723431,175.577789,252.623856,-13.257240,135.495682,,,
417,0,65.001747,67.976486,143.934082,227.340942,33.950386,178.039398,253.361908,-11.831640,138.651932,,,
418,0,64.849213,67.850105,144.280365,226.328079,35.259106,180.341110,254.453156,-10.082520,141.885406,,,
419,0,64.666153,67.675201,144.637939,225.245682,36.629639,182.738968,255.546326,-8.095612,145.034714,,,
420,0,64.447372,67.457260,145.034531,224.194458,38.049850,184.814346,256.569702,-6.073074,148.119186,,,
421,0,64.177658,67.466309,145.559631,223.229019,39.403564,186.732925,257.648193,-3.932043,150.995773,,,
422,0,64.017456,67.216255,145.834015,222.431473,40.745953,188.379272,258.629944,-1.986247,153.608002,,,
423,0,63.836544,67.197014,146.100861,221.733292,41.804768,189.912018,259.363403,-0.267027,155.687927,,,
424,0,63.571983,67.531761,147.027725,221.546997,42.503838,191.048477,259.987762,1.080086,156.978806,,,
425,0,63.145771,67.917145,147.932190,221.826157,42.915405,191.567001,260.691071,2.236255,157.109818,,,
426,0,62.677296,68.288483,149.062744,222.580231,42.943043,191.575974,261.453918,3.246344,156.095703,,,
427,0,62.078739,68.648666,150.356979,223.494217,42.611248,191.242249,262.466125,4.553226,154.216019,,,
428,0,61.299400,68.863609,151.748779,224.387680,42.078838,190.550613,263.374512,5.549521,152.155548,,,
429,0,60.717899,69.059189,153.112778,225.092697,41.603966,189.566147,264.454926,6.965332,150.001846,,,
430,0,60.233910,69.039406,154.331833,225.692963,41.179245,188.349869,265.685669,8.509212,147.915817,,,
431,0,59.812172,69.110069,155.609512,226.246964,40.940071,186.735245,267.149933,10.414577,145.833206,,,
432,0,59.358482,69.226181,156.735229,226.634445,40.894382,184.865875,268.355682,12.249313,143.983170,,,
433,0,58.821987,69.569160,157.885162,226.649948,40.980976,182.822952,269.275330,14.110559,142.253418,,,
434,0,58.203396,70.109291,159.013092,226.450317,41.043884,180.544830,270.008270,16.337481,140.199814,,,
435,0,57.642334,70.591141,159.973801,226.236664,41.090881,178.089401,270.086151,18.699480,137.576202,221.703201,-7.971614,104.374924
436,0,57.136410,71.026756,160.901291,225.793732,40.883930,175.659103,269.381378,21.170002,134.499863,222.455582,-6.160627,97.149727
437,0,56.785328,71.333939,161.661118,225.279327,40.580444,173.422836,268.158875,22.621325,131.215012,223.882019,-6.555351,90.326714
438,0,56.646702,71.527367,162.396423,224.809982,40.171368,171.246658,266.346710,23.200191,128.239471,224.217865,-6.517724,84.201988
439,0,56.572994,71.595879,162.911438,224.328445,39.524075,169.775360,264.926849,22.633369,126.220512,226.587128,-3.450218,76.745155
440,0,56.402687,71.709625,163.213852,223.756790,38.825443,168.645065,263.426178,22.284096,124.509270,228.316513,-7.938372,74.579475
441,0,56.224915,71.816620,163.312332,223.310898,38.373749,168.068298,262.144104,21.994772,123.150909,230.947586,-7.648853,69.376778
442,0,55.994324,71.780388,163.156860,223.051727,38.334763,167.884155,261.340759,22.224148,122.429031,232.684677,-8.192285,67.735542
443,0,55.718941,71.710754,162.892883,222.774963,38.326221,168.051773,260.931549,22.359980,122.449402,233.860977,-8.691716,67.504852
444,0,55.403534,71.703949,162.608353,222.580933,38.327831,168.473236,260.778046,22.345591,122.973328,235.067734,-8.996524,67.626869
445,0,55.096809,71.722588,162.308838,222.356750,38.397442,169.074265,260.563782,22.285353,123.656334,236.812958,-9.539803,67.831200
446,0,54.801746,71.756439,162.056412,222.247940,38.580215,169.607086,260.326263,22.351240,124.208969,239.104202,-10.030222,67.916939
447,0,54.517590,71.865837,161.976074,222.057251,38.744461,170.086502,259.910278,22.475336,124.531502,241.146957,-10.439702,68.063011
448,0,54.310699,71.999100,161.993546,221.822403,38.815620,170.497818,259.439514,22.536636,124.757378,242.877472,-10.764170,68.241081
449,0,54.108582,72.147171,162.112457,221.569229,38.802189,170.840027,258.794159,22.378109,124.797607,244.394150,-10.913196,68.163055
450,0,53.924000,72.252113,162.346939,221.372101,38.796501,171.223389,257.997498,22.234709,124.686676,245.508041,-10.885748,67.935951
451,0,53.747147,72.275200,162.676239,221.178268,38.785351,171.617844,257.199677,22.346996,124.539185,246.263016,-10.370264,67.716530
452,0,53.534786,72.170662,163.044952,220.991776,38.748512,171.970963,256.475220,22.584869,124.385536,246.846817,-9.588120,67.546829
453,0,53.290569,72.060745,163.335205,220.832916,38.711414,172.514145,255.896362,22.882320,124.431969,247.431946,-8.761299,67.640305
454,0,53.042732,71.993195,163.578110,220.641464,38.659988,173.169144,255.464905,23.123520,124.814987,248.223175,-8.168480,68.085678
455,0,52.787865,72.006866,163.668762,220.478088,38.781075,174.051926,255.256714,23.101185,125.782806,249.021729,-8.031049,69.349533
456,0,52.589706,72.156952,163.618591,220.303391,38.945087,175.025558,255.280792,23.144506,126.894745,250.044495,-8.156487,70.434372
457,0,52.433929,72.381546,163.531906,220.173874,39.160343,175.972336,255.536682,23.133373,128.211365,251.326447,-8.448453,72.034676
458,0,52.373249,72.629646,163.401443,220.127686,39.402790,176.794174,255.646072,23.188454,129.277512,252.580582,-8.739181,73.398933
459,0,52.355560,72.750969,163.313126,220.131836,39.556190,177.460220,255.747528,22.949837,130.192780,253.708420,-9.063428,74.561699
460,0,52.396275,72.771881,163.274811,220.174347,39.629768,177.788895,255.730774,22.858465,130.548752,254.709518,-9.123363,75.247169
461,0,52.562927,72.749435,163.336121,220.353577,39.590576,177.830856,255.659378,22.844320,130.437485,255.040741,-8.949498,75.205582
462,0,52.795250,72.639740,163.388519,220.618195,39.466942,177.469666,255.573181,22.969730,129.756607,255.305206,-8.555253,74.536613
463,0,53.144081,72.474548,163.417358,220.950256,39.337406,176.770187,255.471863,23.223476,128.560211,255.462646,-8.075001,73.444046
464,0,53.552681,72.346695,163.485428,221.222336,39.142315,175.893585,255.129669,23.231485,127.042412,255.492661,-7.362466,71.922462
465,0,53.879158,72.126419,163.345490,221.455566,39.021721,174.675323,254.831284,23.672560,125.320686,255.365524,-6.542254,70.172195
466,0,54.170086,71.950363,163.181625,221.656204,38.935207,173.405502,254.516251,23.975468,123.598129,255.222229,-5.595525,68.343773
467,0,54.397114,71.723038,162.855606,221.842056,38.871330,172.321869,254.084564,24.383446,121.874054,254.617996,-4.674313,66.475342
468,0,54.520264,71.592651,162.460861,221.954498,38.841999,171.176346,253.849472,24.993269,120.175468,254.085602,-3.885908,64.774780
469,0,54.572044,71.484352,161.917618,222.112228,38.897167,169.992889,253.508774,25.517185,118.716385,253.628723,-3.385432,63.302681
470,0,54.689228,71.399323,161.362900,222.199188,38.810200,168.961578,253.375107,25.271297,117.555740,253.368851,-3.043763,61.949829
471,0,54.848396,71.337868,160.813950,222.370865,38.690899,167.879150,253.264999,25.419003,116.113846,253.164139,-2.988119,60.615402
472,0,55.088482,71.250496,160.265366,222.547211,38.465847,166.658875,253.147186,25.242168,114.691650,253.073990,-3.047240,59.348240
473,0,55.340294,71.125648,159.670486,222.641098,38.191055,165.440994,252.881470,25.116590,113.427834,252.989822,-3.131315,58.019802
474,0,55.582363,70.891975,159.174316,222.917374,37.915531,164.240417,252.649902,24.728346,111.872200,252.590897,-3.166681,56.631496
475,0,55.832802,70.691200,158.809235,222.926285,37.572853,163.204773,252.349380,24.700104,110.439949,252.186859,-3.269228,55.178661
476,0,56.029854,70.381073,158.514008,223.116150,37.229355,162.079346,252.119385,24.275673,108.976128,251.868454,-3.267420,53.828308
477,0,56.212528,70.075546,158.379059,223.249069,36.945484,161.139694,251.723557,24.175285,107.811409,251.247528,-2.989109,52.475380
478,0,56.319626,69.785675,158.339890,223.246002,36.682240,160.286545,251.361526,24.283964,106.673470,250.813965,-2.532043,51.361824
479,0,56.419258,69.546700,158.315292,223.199158,36.473167,159.669098,251.081741,24.500111,105.816772,250.463791,-1.921218,50.354610
480,0,56.414635,69.323784,158.336807,223.135376,36.348991,159.304077,250.901962,24.793673,105.232544,250.152527,-1.346167,49.700958
481,0,56.370991,69.187828,158.362305,223.071091,36.357422,159.222977,250.745026,25.099155,105.033012,249.910538,-0.831783,49.392570
482,0,56.241497,69.193954,158.431915,223.017731,36.399239,159.343124,250.640625,25.366474,105.124939,249.745895,-0.502283,49.371799
483,0,56.199078,69.202805,158.531921,222.970230,36.483913,159.655334,250.625702,25.503366,105.412964,249.571167,-0.360452,49.555973
484,0,56.199448,69.175301,158.711517,223.005661,36.480534,160.017090,250.637054,25.543743,105.730927,249.507767,-0.287052,49.886303
485,0,56.251694,69.226807,158.908981,223.059784,36.411278,160.359726,250.623734,25.521128,106.136261,249.490997,-0.232914,50.189274
486,0,56.333065,69.274239,159.170364,223.115723,36.371296,160.717438,250.686371,25.502457,106.444572,249.468185,-0.257732,50.529976
487,0,56.400196,69.291008,159.397705,223.228027,36.391857,161.089233,250.549561,25.688850,106.829132,249.467346,-0.364229,50.906914
488,0,56.518658,69.373756,159.632172,223.331604,36.442303,161.392883,250.537155,25.326641,107.384621,249.466934,-0.494196,51.283344
489,0,56.592094,69.393929,159.849091,223.425858,36.483452,161.680939,250.675201,25.637257,107.573822,249.694305,-0.379533,51.613865
490,0,56.693241,69.377235,160.012436,223.482864,36.483780,162.006149,251.001541,25.566351,107.821449,250.000031,-0.080663,51.897324
491,0,56.718433,69.319794,160.165970,223.528305,36.488514,162.274979,251.169266,25.787384,108.146591,250.423111,0.327593,52.145710
492,0,56.715336,69.200439,160.268295,223.572601,36.545849,162.519699,251.357346,25.965641,108.445419,250.881851,0.605846,52.383678
493,0,56.661983,69.148293,160.323059,223.581757,36.550766,162.763275,251.475067,26.123951,108.705002,251.111832,0.815679,52.575462
494,0,56.587021,69.130074,160.343414,223.490768,36.604763,162.902802,251.435196,26.211199,108.814911,251.106171,0.972746,52.691071
495,0,56.530773,69.162949,160.365097,223.451172,36.635216,162.996246,251.311981,26.235914,108.808052,250.902863,1.000818,52.753078
496,0,56.423450,69.147141,160.401810,223.345154,36.629189,163.001602,251.137085,26.206017,108.763161,250.556595,0.981636,52.684818
497,0,56.353958,69.106728,160.411331,223.241394,36.582489,163.001129,250.917648,26.163059,108.684685,250.191635,0.984898,52.616390
498,0,56.238201,69.056343,160.421097,223.129257,36.540028,162.988098,250.760315,26.128649,108.608292,249.870529,1.055583,52.473682
499,0,56.156162,68.999352,160.369614,223.080948,36.479885,162.965027,250.689209,26.061625,108.525162,249.640564,0.943962,52.421616
500,0,56.080276,68.941666,160.305862,223.076080,36.460670,162.951431,250.669128,26.034004,108.495071,249.631119,0.898495,52.398968
501,0,56.028919,68.884567,160.267197,223.023636,36.448757,163.034790,250.711761,26.076450,108.583115,249.696121,1.053238,52.454666
502,0,55.895470,68.855362,160.254227,222.939835,36.465775,163.233932,250.749146,26.214741,108.796417,249.784805,1.193059,52.707844
503,0,55.689003,68.777161,160.253433,222.779175,36.517380,163.645218,250.789520,26.314150,109.285431,249.943909,1.345025,53.180294
504,0,55.334499,68.752266,160.318573,222.489822,36.532974,164.346130,250.698181,26.414135,110.050468,250.276886,1.595660,53.922520
505,0,54.933758,68.780556,160.445312,222.074600,36.594463,165.328018,250.499481,26.900179,111.331276,250.618576,1.657740,55.122204
506,0,54.451908,68.741180,160.626877,221.734131,36.621235,166.551743,250.712509,26.643511,112.678337,251.090698,1.486178,56.473175
507,0,53.969746,68.698616,160.885025,221.468613,36.623779,167.867630,250.854553,26.533224,114.194893,251.696411,1.161322,58.297604
508,0,53.614422,68.683792,161.160080,221.123505,36.612076,169.060760,250.775330,26.528248,115.855217,252.336533,0.762348,59.841629
509,0,53.386772,68.716026,161.462631,220.935852,36.511120,170.369766,251.133591,25.970894,117.388840,252.921646,0.253749,61.600636
510,0,53.096718,68.752075,161.834946,220.788467,36.472500,171.759155,251.230057,25.859482,119.074753,253.425293,-0.320907,63.378944
511,0,52.915482,68.747475,162.217590,220.541443,36.319836,173.194031,251.444336,25.504471,120.824791,254.010834,-0.804992,65.168304
512,0,52.665802,68.654190,162.605179,220.350342,36.257202,174.679642,251.708801,25.363525,122.566071,254.714844,-1.130582,67.118141
513,0,52.348141,68.520050,162.941589,220.049561,36.131310,176.530655,252.236633,25.066124,124.736053,255.873825,-1.297089,69.430634
514,0,52.031078,68.376595,163.201889,219.757767,36.149418,178.396698,252.956955,24.967794,127.283600,257.175354,-1.551944,71.894341
515,0,51.624149,68.243134,163.354263,219.282501,36.190659,180.425308,253.649414,24.917553,130.126511,258.976318,-1.982517,74.935249
516,0,51.268536,68.176170,163.392075,218.860916,36.363243,182.407700,254.768936,24.789967,133.294495,261.198395,-2.563966,78.304810
517,0,50.952648,68.129723,163.291840,218.570633,36.418060,184.541046,256.056976,24.488697,136.583054,263.701111,-3.431830,81.930946
518,0,50.708054,68.207901,163.076385,218.169907,36.448936,186.354935,257.327728,23.973188,140.057159,266.259186,-4.663280,85.633255
519,0,50.603683,68.327415,162.868408,217.765274,36.511227,187.919571,258.399536,23.188246,143.361465,268.631683,-6.191707,89.398315
520,0,50.553955,68.481712,162.757858,217.425095,36.313267,189.369293,259.388336,22.378901,146.372864,270.852295,-7.820560,92.857414
521,0,50.537849,68.597069,162.654724,217.031937,36.024780,190.402664,260.257782,21.367315,149.181961,272.724091,-9.529119,95.911491
522,0,50.523094,68.606621,162.552902,216.490570,35.646034,191.007492,261.004028,20.274187,151.537537,274.464081,-11.141059,98.692886
523,0,50.558384,68.556412,162.482819,216.266205,35.207996,191.688904,261.689972,19.194017,153.659973,275.824768,-12.895463,101.040901
524,0,50.664753,68.428146,162.329224,216.059692,34.847828,192.112091,262.287872,18.380959,155.293839,277.204132,-14.143084,102.934448
525,0,50.857616,68.197075,162.102737,216.056473,34.605873,192.303833,262.941406,17.407639,156.705597,278.463867,-15.121302,104.572586
526,0,51.070644,67.949165,161.887573,216.067566,34.524662,192.297211,263.404785,16.854195,157.687592,279.597534,-15.934620,105.802742
527,0,51.302837,67.737343,161.611969,216.150757,34.575008,192.108521,263.834412,16.532640,158.258743,280.863617,-16.330662,106.735023
528,0,51.439190,67.526199,161.372192,216.201584,34.622276,191.740875,264.146393,16.364058,158.461868,281.930664,-16.537910,107.196045
529,0,51.427067,67.327324,161.225876,216.220551,34.531479,191.161438,264.327423,16.266588,158.288101,282.689270,-16.609560,107.215645
530,0,51.337337,67.110382,161.139496,216.174011,34.403942,190.453049,264.400909,16.201530,157.748917,283.403900,-16.496338,106.823051
531,0,51.168728,66.915916,161.134933,216.255524,34.229298,189.471878,264.359039,16.103428,156.824829,284.079651,-16.306854,106.095078
532,0,50.949921,66.723427,161.152847,216.205276,33.966389,188.188171,264.190765,15.910631,155.436127,284.667938,-16.173155,105.084549
533,0,50.757729,66.491798,161.224014,216.225266,33.647381,186.715012,264.171875,15.618802,153.819916,285.220551,-16.145393,103.777733
534,0,50.619904,66.347931,161.324432,216.413452,33.357430,184.957047,263.828003,15.407684,151.823624,285.734436,-16.118145,102.179565
535,0,50.577438,66.260170,161.411270,216.552429,33.083603,182.952988,263.603058,15.124826,149.618256,286.185394,-16.216059,100.443619
536,0,50.647968,66.188927,161.496658,216.650803,32.780235,180.725998,263.305420,14.856190,147.294922,286.802338,-16.083637,98.454414
537,0,50.802826,66.146606,161.568161,216.886154,32.529434,178.422714,263.026367,14.776125,144.654877,287.376953,-15.917372,96.516960
538,0,51.049419,66.134583,161.580811,216.991714,32.384605,175.882568,262.744110,14.745420,142.059204,288.058746,-15.412038,94.304749
539,0,51.338017,66.076752,161.539825,217.031830,32.349350,173.217819,262.308746,15.162376,139.182831,288.699097,-14.765512,92.102776
540,0,51.641972,65.976341,161.378265,217.100723,32.364475,170.536377,261.928711,15.674274,136.204285,289.343903,-13.545259,89.592369
541,0,51.839508,65.917694,161.280838,217.074249,32.464600,167.944778,261.264252,16.213915,133.283722,289.432404,-12.541081,86.921638
542,0,51.969479,65.826523,161.141205,217.047714,32.585133,165.547363,260.617645,16.730883,130.410202,289.190125,-11.069422,84.243217
543,0,52.017994,65.703354,160.875275,216.717392,32.865101,163.284363,259.888306,17.446440,127.686676,288.596985,-9.877866,81.573326
544,0,51.994625,65.631111,160.591187,216.681808,33.201023,161.384842,259.020325,18.171356,125.187439,287.518402,-9.019769,79.046478
545,0,51.945770,65.629852,160.226944,216.453110,33.499496,159.685410,258.238159,19.005716,122.996460,287.005005,-7.963308,76.724457
546,0,51.899662,65.682243,159.803787,216.451218,33.855591,158.279190,257.671570,19.432962,121.095078,286.485382,-7.330374,74.956757
547,0,51.894138,65.859627,159.409180,216.329773,34.054710,156.950836,257.426819,19.684515,119.573029,286.074982,-7.243786,73.620041
548,0,51.986591,66.102036,158.984344,216.320770,34.314018,155.758835,257.152985,20.034641,118.134369,286.302795,-6.943057,72.547775
549,0,52.209076,66.482834,158.483826,216.512558,34.511787,154.764542,257.172302,20.205811,117.000885,286.426483,-6.521290,71.553841
550,0,52.563107,66.814568,157.907455,216.777267,34.709003,153.701935,257.353333,20.269396,116.040848,286.785248,-6.875778,70.933151
551,0,52.997753,67.111732,157.357605,217.340805,34.799236,152.653320,257.767975,20.293985,115.247238,287.657288,-6.758395,70.332787
552,0,53.525826,67.427986,156.810074,217.799011,34.853539,151.649597,258.394379,20.150274,114.441254,288.528229,-7.392958,69.986267
553,0,54.285492,67.765785,156.200653,218.322388,34.873379,150.411560,259.048065,19.979738,113.566368,289.483276,-7.525446,69.454262
554,0,55.097168,67.872475,155.525757,219.026840,34.738758,149.137177,259.838989,19.711636,112.638260,290.672699,-7.907451,68.856712
555,0,55.885979,67.998741,155.040543,219.768433,34.632256,147.831039,260.687500,19.200010,111.637260,291.624695,-8.630696,68.296257
556,0,56.740795,67.953072,154.565948,220.260468,34.513237,146.460037,261.078705,18.985962,110.581245,292.440948,-9.002255,67.700180
557,0,57.316414,67.940727,154.152924,220.608627,34.465405,145.304352,261.492310,18.741522,109.627853,292.866547,-8.941604,66.715439
558,0,57.596874,67.881058,153.834427,220.758911,34.463467,144.371796,261.318878,18.789932,108.646561,292.780365,-9.339139,66.014206
559,0,57.589485,67.869591,153.555420,220.690582,34.597420,143.667908,261.108429,18.884640,107.734314,292.435730,-9.404274,65.216049
560,0,57.409443,67.901283,153.349625,220.590027,34.842369,143.065659,260.732544,18.937613,107.001297,291.988037,-9.065575,64.287827
561,0,57.240997,67.861504,153.174225,220.400787,35.103703,142.597397,260.349731,19.195520,106.305344,291.336731,-9.184299,63.542156
562,0,57.006882,67.860130,153.016006,220.233139,35.398159,142.223053,259.935669,19.804096,105.709869,290.821716,-8.863654,62.821686
563,0,56.880207,67.914062,152.890961,220.123932,35.596802,141.963013,259.778320,20.216148,105.276009,290.628723,-8.389463,62.292805
564,0,56.859592,67.967941,152.771133,220.102234,35.726135,141.790497,259.791077,20.508305,105.013779,290.764313,-7.909706,62.061512
565,0,56.999355,68.004570,152.617172,220.210938,35.723309,141.602737,260.036987,20.695518,104.880814,291.214996,-7.215660,61.810665
566,0,57.273029,68.029297,152.480362,220.416855,35.632103,141.407440,260.327484,20.757397,104.779472,291.872467,-7.279832,61.911594
567,0,57.627743,68.071503,152.339493,220.758377,35.453304,141.140427,260.675262,20.549118,104.741142,292.427246,-7.459142,62.005680
568,0,58.012077,68.108795,152.169861,221.106308,35.286983,140.854248,261.133179,20.079985,104.685242,292.915680,-8.306478,62.268627
569,0,58.447350,68.210960,152.047791,221.469177,35.042854,140.503860,261.614746,19.247757,104.702698,293.335846,-9.357056,62.565536
570,0,58.901340,68.296463,151.865707,221.800446,34.930393,140.116119,261.908264,18.616018,104.610382,293.627563,-10.432945,62.773399
571,0,59.158466,68.415222,151.680069,221.991364,34.892025,139.778534,262.056244,18.230551,104.464783,293.864502,-11.530947,63.126789
572,0,59.366043,68.475365,151.550781,222.106094,34.863373,139.559845,262.127563,18.034534,104.294533,293.679688,-11.772687,62.851139
573,0,59.362415,68.473595,151.463669,222.145325,34.873581,139.389053,262.161743,18.007980,104.054649,293.809967,-11.769801,62.736080
574,0,59.330921,68.370445,151.434219,222.121902,34.803932,139.267883,262.108673,18.148308,103.776314,293.714813,-11.415301,62.246368
575,0,59.247250,68.385269,151.459351,222.052826,34.680336,139.159012,262.011810,18.377668,103.453995,293.704712,-10.891341,61.655186
576,0,59.153240,68.018387,151.437073,221.995132,34.507153,139.007309,261.877380,18.478420,103.159363,293.570526,-10.475102,61.120476
577,0,59.124474,67.876823,151.361694,221.982864,34.402340,138.838623,261.806458,18.495373,102.849327,293.559265,-10.119065,60.607410
578,0,59.204803,67.847588,151.322784,221.967941,34.311359,138.639694,261.750031,18.395945,102.555618,293.395294,-10.212804,60.309067
579,0,59.230579,67.862877,151.235519,221.995926,34.301159,138.435089,261.713165,18.224232,102.384102,293.132904,-10.448571,60.079292
580,0,59.256702,67.976898,151.169312,221.976151,34.330490,138.313629,261.616943,18.048962,102.249054,292.935089,-10.644121,59.957745
581,0,59.247135,68.014824,151.090561,221.944290,34.369732,138.266190,261.581696,18.103252,102.178246,292.717804,-10.959576,59.950779
582,0,59.185318,68.115601,151.080017,221.865524,34.396671,138.295868,261.554901,18.174438,102.216248,292.735352,-10.816200,59.945717
583,0,59.087597,68.126656,151.011520,221.846161,34.436661,138.316284,261.618530,18.330034,102.291458,292.893921,-10.419875,59.962444
584,0,59.082390,68.177101,150.985962,221.836441,34.502411,138.373627,261.664124,18.338322,102.398666,293.059174,-10.476124,60.182648
585,0,59.039230,68.227112,150.917618,221.846252,34.577919,138.421280,261.713989,18.423021,102.560104,293.142059,-10.813378,60.551128
586,0,59.043419,68.315155,150.862778,221.879700,34.679596,138.428726,261.758331,18.467230,102.696037,293.332062,-10.840474,60.793320
587,0,59.132351,68.439529,150.812592,221.969559,34.819588,138.365372,261.871552,18.536917,102.784760,293.562469,-10.828634,60.938698
588,0,59.426933,68.626335,150.563904,222.052750,34.924904,138.341461,261.975220,18.595837,102.822227,293.788452,-10.497276,60.943470
589,0,59.434731,68.675240,150.514954,222.085419,34.989155,138.320251,262.074585,18.804472,102.776016,293.951904,-10.208666,60.906631
590,0,59.455029,68.621948,150.499023,222.086578,35.026192,138.293106,262.132080,18.938572,102.726730,294.045471,-9.814640,60.798641
591,0,59.410084,68.619148,150.582031,222.081696,35.036243,138.318054,262.096954,19.351610,102.651634,294.110199,-9.439203,60.667229
592,0,59.401501,68.590218,150.600723,222.073624,35.042732,138.294922,262.143646,19.430437,102.598808,294.109497,-9.304226,60.612671
593,0,59.242409,68.512634,150.761765,222.031693,35.074802,138.272095,262.213745,19.569452,102.549072,294.112976,-9.137136,60.482338
594,0,59.252724,68.548355,150.707626,222.058609,35.158115,138.217270,262.229980,19.735664,102.515121,294.105713,-9.012257,60.407181
595,0,59.248787,68.658455,150.638412,222.111542,35.240746,138.175858,262.231995,19.788618,102.404015,294.112152,-8.980536,60.289158
596,0,59.476807,68.875717,150.441681,222.149384,35.367561,138.072830,262.089874,20.278809,102.227478,294.167999,-8.710732,60.122852
597,0,59.503281,68.943733,150.351837,222.171768,35.472103,137.988586,262.093109,20.368589,102.134338,294.096161,-8.615869,60.040569
598,0,59.342567,69.159447,150.523041,222.192337,35.543709,137.962494,262.109192,20.498661,102.071396,294.117950,-8.477983,59.926983
599,0,59.297794,69.212784,150.593811,222.166260,35.670017,137.971970,262.138672,20.658789,102.079231,294.113098,-8.327998,59.905251
600,0,59.429974,69.198997,150.420334,222.175781,35.779900,137.980392,262.117676,20.737871,102.102028,294.066284,-8.181114,59.860100
601,0,59.181526,69.176041,150.543610,222.146255,35.869316,138.019760,262.076904,20.840778,102.094551,293.999451,-8.155158,59.817791
602,0,59.180546,69.215950,150.522156,222.177521,35.975975,137.988190,262.112762,20.902702,102.068207,293.938019,-8.111569,59.757214
603,0,59.146553,69.305870,150.508301,222.189804,36.127884,137.973297,262.086456,20.982372,102.020767,293.855743,-8.108337,59.705845
604,0,59.161430,69.465988,150.518448,222.213074,36.230488,137.949661,262.120239,21.048046,101.994293,293.821228,-8.118568,59.687073
605,0,59.245678,69.707787,150.499313,222.260315,36.370491,137.926208,262.136566,21.123165,101.950417,293.660187,-8.417354,59.753414
606,0,59.315445,69.923538,150.505615,222.308701,36.473690,137.924789,262.176941,21.169380,101.913498,293.670288,-8.403776,59.696903
607,0,59.327774,70.083687,150.503006,222.295441,36.533775,137.956192,262.196136,21.268486,101.955177,293.603180,-8.293972,59.635193
608,0,59.302341,70.131149,150.592911,222.282150,36.567936,138.041901,262.223206,21.405392,102.046707,293.560547,-8.060781,59.587357
609,0,59.170284,69.676018,150.553482,222.164368,36.550793,138.195847,262.197327,21.556904,102.190125,293.593445,-7.498402,59.447361
610,0,59.052307,69.759842,150.647873,222.109833,36.496513,138.330978,262.238617,21.733557,102.329697,293.629486,-7.152790,59.408039
611,0,58.924328,69.748077,150.716232,221.999191,36.485306,138.484650,262.206329,21.951649,102.451019,293.663300,-6.660277,59.371349
612,0,58.782227,69.659599,150.764496,221.923019,36.477604,138.639877,262.233368,22.117758,102.570793,293.729401,-6.349007,59.424683
613,0,58.684254,69.424377,150.785034,221.863068,36.473236,138.780655,262.239716,22.269188,102.670059,293.806854,-6.154173,59.548531
614,0,58.640911,69.380791,150.780273,221.862137,36.470081,138.883438,262.293457,22.298157,102.761948,293.804138,-6.238472,59.722187
615,0,58.672508,69.404076,150.754532,221.841904,36.417229,138.980850,262.315277,22.097950,102.899483,293.806427,-6.509864,59.899342
616,0,58.680943,69.420761,150.753998,221.893143,36.290630,139.051758,262.328674,21.832714,103.030022,293.822235,-6.956976,60.104946
617,0,58.690521,69.437141,150.746902,221.872070,36.194324,139.069611,262.326904,21.571941,103.152809,293.769379,-7.366838,60.229446
618,0,58.671074,69.417992,150.753006,221.832870,36.095470,139.131042,262.275513,21.332561,103.212471,293.709442,-7.737563,60.361893
619,0,58.667469,69.644295,150.762939,221.786621,36.011433,139.165771,262.222351,21.170158,103.258934,293.600586,-7.998195,60.382885
620,0,58.586330,69.593910,150.778229,221.777603,35.967884,139.206558,262.186829,21.083017,103.276299,293.498901,-8.075582,60.395023
621,0,58.564583,69.589661,150.770432,221.735565,35.957523,139.224716,262.154846,21.092260,103.312706,293.310364,-8.389390,60.444118
622,0,58.535423,69.355957,150.757935,221.726151,35.950932,139.262192,262.213409,21.139183,103.346199,293.271606,-8.275542,60.384087
623,0,58.471001,69.317986,150.810120,221.690979,35.954689,139.308777,262.207458,21.262182,103.356079,293.370972,-7.756133,60.163998
624,0,58.468681,69.249275,150.843704,221.703659,35.918278,139.330719,262.263611,21.426725,103.349258,293.376404,-7.284527,60.000835
625,0,58.432209,69.172173,150.879639,221.662140,35.856495,139.379242,262.320923,21.629133,103.347038,293.536285,-6.953948,59.917763
626,0,58.419926,69.128098,150.893661,221.654602,35.800541,139.393692,262.325684,21.785519,103.334679,293.583374,-6.641665,59.840118
627,0,58.413658,69.097397,150.916428,221.642456,35.774708,139.414581,262.423889,21.715752,103.362770,293.623444,-6.745852,59.857658
628,0,58.397678,69.132378,150.896759,221.657806,35.747620,139.394257,262.303741,21.654860,103.289772,293.510101,-6.814776,59.843529
629,0,58.397007,69.163651,150.861969,221.645645,35.741535,139.353714,262.267731,21.444021,103.290955,293.340973,-7.267833,59.860039
630,0,58.418343,69.232994,150.823303,221.666443,35.688931,139.291092,262.196106,21.209709,103.225372,293.093262,-8.029772,59.966686
631,0,58.372200,69.500641,150.823700,221.621933,35.631084,139.240875,262.151703,20.982056,103.172371,292.982544,-8.200313,59.818893
632,0,58.401432,69.552475,150.750641,221.665253,35.558411,139.167480,262.076019,20.768623,103.097511,292.833893,-8.439519,59.705780
633,0,58.425346,69.598213,150.674438,221.649307,35.461441,139.060547,262.069794,20.628204,102.962303,292.741577,-8.701207,59.605980
634,0,58.424358,69.665703,150.605942,221.653030,35.402370,138.906799,262.058899,20.495708,102.904030,292.683838,-8.937580,59.474762
635,0,58.374039,69.444283,150.516373,221.637711,35.353924,138.771332,262.063782,20.409294,102.744431,292.572113,-9.077455,59.312836
636,0,58.370949,69.499374,150.426636,221.648849,35.360123,138.635727,262.029663,20.335508,102.609688,292.418365,-9.182143,59.104279
637,0,58.380520,69.511414,150.319138,221.590988,35.367912,138.463318,261.966980,20.332644,102.413513,292.393402,-9.309550,58.918175
638,0,58.334618,69.515381,150.250198,221.564453,35.391212,138.300339,261.924805,20.401041,102.207924,292.325897,-9.218202,58.641136
639,0,58.322956,69.563995,150.147766,221.511780,35.428185,138.147919,261.806061,20.507711,102.002594,292.130646,-8.778829,58.307037
640,0,58.253685,69.560173,150.101166,221.462051,35.472687,138.031494,261.698181,20.656115,101.831154,291.969086,-8.285336,58.022320
641,0,58.250816,69.577934,150.050079,221.388931,35.482769,137.909256,261.662201,20.772934,101.666435,291.884125,-8.164499,57.824295
642,0,58.159126,69.601799,149.991211,221.347107,35.494068,137.784851,261.619019,20.790165,101.524170,291.796844,-8.299190,57.683094
643,0,58.130112,69.616936,149.922302,221.307068,35.508713,137.748505,261.511108,20.770393,101.432915,291.622772,-8.356578,57.556679
644,0,58.113377,69.661949,149.895172,221.330780,35.488300,137.671982,261.456970,20.711302,101.327553,291.480530,-8.564749,57.483196
645,0,58.083302,69.699837,149.843002,221.290710,35.482201,137.593872,261.420349,20.648212,101.244019,291.438416,-8.739799,57.409042
646,0,58.135700,69.718498,149.716553,221.284698,35.435661,137.522659,261.439911,20.554914,101.203659,291.398499,-8.800046,57.354321
647,0,58.111050,69.640640,149.659393,221.278580,35.373997,137.516724,261.441742,20.496000,101.198296,291.454620,-8.873479,57.364468
648,0,58.090363,69.645134,149.633209,221.275543,35.331936,137.488434,261.473969,20.448963,101.208778,291.487274,-8.881370,57.395969
649,0,58.081287,69.624046,149.577499,221.302994,35.293293,137.465240,261.498016,20.385660,101.199936,291.574402,-9.092856,57.466278
650,0,58.124287,69.630959,149.515015,221.348572,35.274246,137.437210,261.569489,20.321581,101.194092,291.584534,-9.049417,57.470577
651,0,58.156075,69.633904,149.498123,221.368683,35.264164,137.401672,261.569641,20.243158,101.213707,291.626068,-9.221435,57.472771
652,0,58.231968,69.677071,149.484207,221.385132,35.237041,137.418686,261.611115,20.198959,101.178429,291.653229,-9.290841,57.466690
653,0,58.278713,69.695030,149.532486,221.432968,35.226189,137.453003,261.660339,20.227087,101.182060,291.564728,-9.164860,57.422852
654,0,58.326393,69.665192,149.540268,221.468857,35.189575,137.493057,261.700409,20.256422,101.186058,291.633331,-9.284159,57.428944
655,0,58.333397,69.596527,149.537750,221.509995,35.194458,137.551620,261.708954,20.282541,101.238754,291.663971,-9.185668,57.477421
656,0,58.321346,69.639191,149.579132,221.507004,35.202293,137.648636,261.766815,20.289728,101.348190,291.762207,-9.315904,57.600391
657,0,58.335701,69.664009,149.599167,221.511108,35.255898,137.700302,261.776550,20.245239,101.489067,291.820038,-9.326559,57.789661
658,0,58.320671,69.747681,149.550995,221.497147,35.310612,137.810699,261.776031,20.268703,101.645294,291.888550,-9.389327,58.009579
659,0,58.271839,69.885231,149.528824,221.483398,35.430634,137.892426,261.809814,20.281185,101.762161,291.901917,-9.375406,58.189526
660,0,58.267933,69.977554,149.498535,221.491852,35.552189,138.025894,261.803131,20.381048,101.934242,291.938477,-9.347338,58.358883
661,0,58.217903,70.090240,149.493622,221.462692,35.662014,138.175720,261.838654,20.545288,102.091133,291.956116,-9.099607,58.533947
662,0,58.131409,70.162987,149.545181,221.420242,35.782131,138.279068,261.858032,20.687300,102.232513,292.100586,-9.066372,58.703529
663,0,58.125423,70.157539,149.545151,221.418839,35.874039,138.380264,261.835144,20.826166,102.360741,291.999603,-8.843930,58.887459
664,0,58.100021,70.153427,149.589218,221.400497,35.937756,138.475266,261.858093,20.970612,102.443161,292.087128,-8.629481,58.935959
665,0,58.100536,70.181900,149.595322,221.449524,36.002480,138.544571,261.942688,21.141695,102.518166,292.189423,-8.366360,58.959515
666,0,58.081017,70.226028,149.600739,221.490936,36.104908,138.566544,262.027161,21.297211,102.531166,292.277313,-8.161200,58.931435
667,0,58.166813,70.309074,149.537811,221.555984,36.154800,138.562637,262.093689,21.442413,102.541107,292.442505,-7.744545,58.780655
668,0,58.245186,70.656029,149.444962,221.647430,36.261730,138.472794,262.192017,21.589403,102.497154,292.453308,-7.890740,58.820522
669,0,58.282131,70.477005,149.337357,221.664810,36.342880,138.380554,262.293640,21.657373,102.397934,292.443115,-7.853519,58.722942
670,0,58.330044,70.525650,149.313873,221.748550,36.419086,138.332901,262.326447,21.734362,102.330864,292.435089,-7.802180,58.592266
671,0,58.370480,70.518349,149.278778,221.755188,36.421402,138.239944,262.368134,21.801136,102.191605,292.501343,-7.475575,58.316208
672,0,58.349651,70.483627,149.290527,221.744324,36.346756,138.152145,262.340546,21.857193,102.091957,292.366547,-7.520783,58.161705
673,0,58.343060,70.439278,149.269836,221.739059,36.241734,138.093643,262.345428,21.912851,102.005089,292.450378,-7.144907,57.861191
674,0,58.346344,70.378036,149.220596,221.672974,36.147228,137.999985,262.323639,21.997211,101.881363,292.442444,-7.008562,57.604046
675,0,58.331028,70.344528,149.127304,221.645508,36.105156,137.871796,262.332642,22.045248,101.799049,292.396790,-6.869141,57.341282
676,0,58.344826,70.346733,149.028641,221.616180,36.041851,137.744492,262.299896,22.135361,101.690155,292.363342,-6.768162,57.118336
677,0,58.320583,70.345879,148.958450,221.611832,36.041878,137.627655,262.264191,22.146608,101.558128,292.291351,-6.749622,56.904232
678,0,58.331867,70.373367,148.864670,221.569458,36.025341,137.531784,262.228424,22.134039,101.433037,292.212708,-6.766971,56.745499
679,0,58.277714,70.392677,148.865753,221.536316,36.016609,137.470535,262.173218,22.108877,101.386269,292.072479,-6.886860,56.612274
680,0,58.253246,70.448822,148.822495,221.518524,36.016575,137.392441,262.127899,22.002737,101.309654,291.927979,-7.046852,56.508347
681,0,58.239677,70.502243,148.762299,221.508392,36.029648,137.334793,262.061279,21.918325,101.243332,291.794495,-7.266088,56.501827
682,0,58.245182,70.567162,148.753296,221.486588,36.053478,137.328613,262.049194,21.873495,101.194565,291.676270,-7.427796,56.496201
683,0,58.229183,70.626045,148.754929,221.488754,36.060368,137.321945,262.021118,21.803732,101.188828,291.625854,-7.612530,56.493935
684,0,58.219009,70.736412,148.732895,221.500549,36.125195,137.274277,262.040283,21.774391,101.182404,291.500732,-8.006297,56.638271
685,0,58.264683,70.760971,148.675980,221.528320,36.168221,137.249985,262.076324,21.750084,101.158318,291.479156,-8.074085,56.651463
686,0,58.294697,70.864861,148.689285,221.598663,36.203819,137.224945,262.105133,21.770985,101.128151,291.504089,-8.120719,56.595951
687,0,58.380608,70.906776,148.624298,221.607864,36.249187,137.165527,262.152954,21.811161,101.050468,291.470215,-8.132093,56.516872
688,0,58.387497,70.952049,148.596863,221.694305,36.307529,137.091644,262.191681,21.821777,101.011269,291.488922,-8.134159,56.454685
689,0,58.442898,71.047546,148.569290,221.709610,36.343117,137.056198,262.210205,21.836473,100.953392,291.471802,-8.190527,56.387344
690,0,58.481300,71.068138,148.543320,221.708618,36.347950,136.996307,262.212585,21.839762,100.877495,291.446075,-8.219490,56.288452
691,0,58.498672,71.095276,148.558395,221.701401,36.372768,136.965225,262.214386,21.825846,100.829956,291.380676,-8.264984,56.205215
692,0,58.466846,71.116608,148.535095,221.664703,36.360401,136.928467,262.176270,21.833977,100.786217,291.325073,-8.229468,56.103115
693,0,58.395691,71.097252,148.562973,221.636841,36.332405,136.924683,262.107910,21.861609,100.752586,291.254120,-8.251845,56.045063
694,0,58.380569,71.116699,148.501495,221.602783,36.334656,136.906769,262.100677,21.789305,100.742424,291.171875,-8.302607,56.013962
695,0,58.387775,71.114395,148.488663,221.577515,36.300636,136.900177,262.075073,21.746157,100.752754,291.127441,-8.408279,56.022678
696,0,58.374077,71.125099,148.423553,221.570221,36.285019,136.880356,262.037415,21.644836,100.734993,291.144531,-8.595135,56.073257
697,0,58.333912,71.139839,148.428436,221.573837,36.259304,136.799683,262.024139,21.520123,100.715759,291.064880,-8.802653,56.135685
698,0,58.340836,71.202164,148.348648,221.564163,36.247517,136.762238,262.006989,21.403194,100.695267,291.078094,-8.809750,56.081757
699,0,58.363171,71.257866,148.329193,221.565247,36.242172,136.745346,261.994659,21.291553,100.622368,291.016022,-9.019962,56.060143
700,0,58.344555,71.251976,148.351593,221.552307,36.209690,136.692719,261.971283,21.237953,100.596741,290.913330,-9.162878,56.024719
701,0,58.372440,71.213554,148.380035,221.539658,36.158649,136.666824,261.912170,21.193895,100.563942,290.855682,-9.176224,55.926422
702,0,58.318001,71.147530,148.400940,221.528229,36.108952,136.666306,261.905334,21.205374,100.522285,290.855560,-9.128835,55.878685
703,0,58.295418,71.091843,148.464981,221.506302,36.116989,136.695358,261.918335,21.258001,100.489517,290.798462,-8.998132,55.824314
704,0,58.281975,71.081383,148.486771,221.502701,36.113361,136.732544,261.925171,21.307581,100.504433,290.831848,-8.919181,55.780685
705,0,58.312428,71.080475,148.458984,221.524307,36.156391,136.804764,261.975891,21.353945,100.540184,290.827393,-8.853611,55.801846
706,0,58.356651,71.104576,148.432297,221.559814,36.168259,136.828217,261.975098,21.400059,100.628029,290.888794,-8.839448,55.886124
707,0,58.369274,71.171165,148.418716,221.577408,36.205269,136.905350,261.983948,21.424740,100.698326,290.936523,-8.823656,55.986012
708,0,58.393951,71.196396,148.434357,221.598648,36.180763,136.991272,262.051971,21.425520,100.797592,291.006195,-8.816590,56.066471
709,0,58.407696,71.192192,148.485062,221.654587,36.166466,137.056992,262.100830,21.419851,100.871841,291.055939,-8.828683,56.170116
710,0,58.410076,71.173569,148.501175,221.682571,36.129143,137.118988,262.150543,21.375315,100.951828,291.112915,-8.829175,56.249500
711,0,58.442841,71.205917,148.506302,221.701080,36.115978,137.167725,262.207825,21.334045,101.022408,291.156799,-8.894515,56.279892
712,0,58.501522,71.212715,148.473724,221.761780,36.110668,137.190659,262.238403,21.340654,101.058472,291.225128,-8.933260,56.373768
713,0,58.541698,71.251907,148.482895,221.818619,36.165253,137.198425,262.338104,21.322681,101.123123,291.278961,-8.941272,56.374058
714,0,58.573181,71.296936,148.476852,221.850189,36.190208,137.164841,262.333282,21.382257,101.134338,291.288330,-8.873239,56.373409
715,0,58.561661,71.267845,148.477859,221.832031,36.225872,137.209259,262.372253,21.502789,101.126297,291.304138,-8.699055,56.270458
716,0,58.534073,71.233932,148.539047,221.829849,36.220871,137.228897,262.363098,21.583755,101.141838,291.134644,-8.782962,56.240780
717,0,58.491997,71.139893,148.600510,221.810196,36.196064,137.251633,262.315552,21.697886,101.124107,291.164185,-8.491251,56.066147
718,0,58.435249,71.110374,148.696152,221.803955,36.139469,137.318375,262.267059,21.787083,101.094376,291.082489,-8.279040,55.957294
719,0,58.440613,71.055023,148.757874,221.769028,36.093445,137.360168,262.253113,21.849705,101.087921,291.039398,-8.182726,55.890617
720,0,58.418098,71.068100,148.807526,221.752182,36.066975,137.414062,262.222137,21.861032,101.103928,290.997314,-8.157126,55.881573
721,0,58.406059,71.104958,148.832962,221.774826,36.062126,137.443146,262.178345,21.826492,101.108559,290.959106,-8.261777,55.900650
722,0,58.522293,71.193535,148.739395,221.806488,36.086670,137.443100,262.235535,21.732449,101.139877,290.961304,-8.438370,55.974422
723,0,58.553379,71.260910,148.687820,221.863342,36.108425,137.481659,262.290436,21.649651,101.210884,291.028015,-8.412149,56.005394
724,0,58.589363,71.363869,148.706039,221.903458,36.130924,137.522736,262.298492,21.617651,101.254456,290.990021,-8.759904,56.233295
725,0,58.628433,71.359024,148.680405,221.955276,36.147713,137.591705,262.396057,21.542299,101.361992,291.018463,-8.903363,56.354565
726,0,58.610832,71.395515,148.739594,221.960815,36.143742,137.624283,262.399445,21.543953,101.430077,291.099762,-8.712495,56.335411
727,0,58.576305,71.353386,148.768753,221.956299,36.134705,137.640823,262.399017,21.488365,101.481308,291.080170,-8.704014,56.397461
728,0,58.469009,71.333923,148.818863,221.917511,36.113937,137.694016,262.387573,21.497143,101.520287,291.089966,-8.718156,56.429600
729,0,58.455223,71.282753,148.824509,221.887726,36.133003,137.701645,262.375366,21.483364,101.554359,291.066803,-8.740314,56.428036
730,0,58.418045,71.239151,148.831482,221.878372,36.151798,137.691757,262.320770,21.502775,101.512650,291.064850,-8.739147,56.427151
731,0,58.408768,71.251060,148.806000,221.875351,36.183830,137.632675,262.347839,21.466108,101.446175,291.004089,-8.743044,56.350273
732,0,58.449638,71.304718,148.810349,221.873627,36.220413,137.583450,262.315094,21.473621,101.368042,290.868469,-9.085812,56.373734
733,0,58.436440,71.337143,148.810425,221.874695,36.275631,137.485733,262.287598,21.491835,101.282722,290.936218,-8.842949,56.168327
734,0,58.471939,71.382721,148.763962,221.940109,36.279053,137.397049,262.335693,21.494881,101.160912,290.895050,-8.961885,56.108032
735,0,58.496624,71.438049,148.723160,221.943542,36.272842,137.330399,262.321259,21.472458,101.062355,290.870636,-9.041415,56.010273
736,0,58.509438,71.458023,148.700500,221.976700,36.298279,137.214325,262.361938,21.451838,100.976501,290.805634,-9.102525,55.916180
737,0,58.529835,71.496758,148.637085,221.978348,36.324490,137.151718,262.330231,21.420588,100.874397,290.788391,-9.168355,55.823723
738,0,58.516659,71.543587,148.632126,221.987473,36.332035,137.096237,262.298004,21.417702,100.819420,290.612000,-9.469928,55.846458
739,0,58.457962,71.560219,148.602295,221.970581,36.361412,137.065094,262.290161,21.434029,100.768158,290.566193,-9.452731,55.734596
740,0,58.469929,71.599113,148.534744,221.946335,36.388138,137.001984,262.254700,21.459393,100.684013,290.466675,-9.410636,55.610264
741,0,58.456585,71.639542,148.489319,221.943558,36.432236,136.954742,262.258423,21.489239,100.588364,290.527679,-9.145087,55.448006
742,0,58.421692,71.670822,148.509018,221.956467,36.470673,136.878647,262.280029,21.530823,100.524124,290.386353,-9.385167,55.434269
743,0,58.432858,71.738434,148.467300,221.974991,36.506348,136.834274,262.293701,21.560926,100.430870,290.335999,-9.409492,55.280945
744,0,58.469028,71.774643,148.425522,221.970947,36.519444,136.741501,262.263123,21.562920,100.304253,290.276428,-9.478900,55.165749
745,0,58.531326,71.829926,148.384720,222.023666,36.562840,136.615158,262.292694,21.520067,100.188972,290.210419,-9.581307,55.073372
746,0,58.571503,71.894859,148.343079,222.232254,36.820484,136.510452,262.321442,21.486341,100.089737,290.204102,-9.656888,54.954720
747,0,58.615688,71.941971,148.301575,222.075790,36.603691,136.402710,262.315155,21.448307,99.994728,290.153717,-9.789129,54.895321
748,0,58.614780,71.957947,148.291550,222.070923,36.581528,136.297531,262.247345,21.374166,99.862076,290.161499,-9.688226,54.733673
749,0,58.618355,71.956841,148.252472,222.098923,36.576927,136.222244,262.193115,21.307220,99.744446,290.119720,-9.754992,54.564373
750,0,58.633350,71.925735,148.219925,222.061768,36.533825,136.128998,262.132324,21.219162,99.656281,290.047302,-9.833873,54.478237
751,0,58.578312,71.897766,148.232193,222.080124,36.479530,136.082031,262.088043,21.126207,99.543762,289.985138,-9.957497,54.392262
752,0,58.546955,71.887138,148.266861,222.069550,36.435143,135.991623,262.036072,21.024448,99.482056,289.812439,-10.363991,54.455868
753,0,58.545208,71.852348,148.139801,222.054443,36.386063,135.956406,262.040283,20.949345,99.390450,289.760162,-10.512064,54.416653
754,0,58.560745,71.909424,148.178925,222.021500,36.361256,135.880524,262.017090,20.884752,99.352982,289.696472,-10.668028,54.369724
755,0,58.563324,71.950722,148.112701,222.072723,36.322483,135.806931,262.038818,20.801628,99.265594,289.621643,-10.827320,54.308964
756,0,58.631817,72.000938,148.029221,222.050217,36.352295,135.732727,262.039337,20.773394,99.217896,289.605896,-10.959256,54.265450
757,0,58.627930,72.005547,147.926697,222.093155,36.352936,135.663834,262.034546,20.723188,99.140808,289.565948,-11.054141,54.230644
758,0,58.657921,72.043259,147.886139,222.118271,36.343803,135.600723,262.054138,20.693504,99.083565,289.547882,-11.163354,54.188511
759,0,58.665543,72.090126,147.847610,222.131195,36.377274,135.548691,262.043579,20.664427,99.034164,289.539307,-11.212280,54.141819
760,0,58.635323,72.108063,147.829315,222.147171,36.410351,135.523743,262.037689,20.638592,99.009636,289.476715,-11.264316,54.129002
761,0,58.642258,72.170799,147.852371,222.120895,36.419380,135.512650,261.995941,20.643454,98.988113,289.485535,-11.261195,54.134094
762,0,58.655052,72.200294,147.844528,222.121109,36.455360,135.511810,261.998718,20.684517,98.973679,289.475708,-11.254950,54.127556
763,0,58.624638,72.215424,147.827576,222.155594,36.491253,135.496216,262.000580,20.707153,98.941345,289.500916,-11.231709,54.133305
764,0,58.659313,72.290619,147.793579,222.143448,36.549866,135.510117,262.001434,20.734383,98.956085,289.525391,-11.147857,54.133717
765,0,58.655502,72.283859,147.798050,222.103851,36.576958,135.520706,262.026550,20.767992,99.016312,289.528687,-11.124822,54.151707
766,0,58.667156,72.302986,147.787506,222.129211,36.567181,135.526779,262.014160,20.771606,99.014145,289.561493,-11.126527,54.195946
767,0,58.665691,72.299477,147.798080,222.142853,36.569324,135.510147,262.031708,20.785360,99.026855,289.591675,-11.123271,54.203205
768,0,58.677761,72.310989,147.786270,222.166351,36.547012,135.512283,262.060791,20.745020,99.018646,289.567444,-11.205016,54.207611
769,0,58.657845,72.324402,147.781570,222.172974,36.543709,135.494965,262.085388,20.708359,99.030296,289.591339,-11.295085,54.253372
770,0,58.669849,72.351433,147.749741,222.184509,36.533119,135.499725,262.086273,20.658587,99.003975,289.585541,-11.360167,54.253155
771,0,58.722492,72.388000,147.679657,222.195084,36.517570,135.478119,262.117188,20.618610,98.984100,289.497406,-11.487893,54.226597
772,0,58.741650,72.428368,147.686890,222.167938,36.482643,135.479553,262.087830,20.553013,98.991264,289.499420,-11.572460,54.230671
773,0,58.782742,72.463516,147.662704,222.212189,36.478432,135.435196,262.082642,20.529707,98.964600,289.459961,-11.618172,54.242596
774,0,58.771206,72.526306,147.660736,222.233765,36.505093,135.442200,262.078522,20.514273,98.949615,289.460358,-11.645061,54.182537
775,0,58.800987,72.544479,147.629242,222.213684,36.525692,135.414368,262.061249,20.517628,98.904068,289.457916,-11.683902,54.165180
776,0,58.827709,72.619843,147.585922,222.242081,36.533321,135.398346,262.108704,20.544592,98.903374,289.453094,-11.676793,54.149700
777,0,58.863953,72.621071,147.540237,222.269547,36.575363,135.378265,262.111053,20.544310,98.890854,289.519745,-11.638101,54.129688
778,0,58.833469,72.655617,147.551331,222.279968,36.587135,135.310150,262.115753,20.572397,98.849747,289.480194,-11.589642,54.081627
779,0,58.861397,72.612267,147.527313,222.298553,36.613049,135.280609,262.134613,20.632181,98.775665,289.499298,-11.526390,54.003361
780,0,58.872829,72.587944,147.498749,222.285324,36.634029,135.218704,262.152435,20.665773,98.729271,289.504120,-11.483032,53.940186
781,0,58.858776,72.572433,147.507584,222.297195,36.651215,135.215042,262.148865,20.683884,98.657745,289.511078,-11.487184,53.872410
782,0,58.864494,72.565697,147.504089,222.295288,36.677792,135.169052,262.133972,20.705551,98.601509,289.447479,-11.449369,53.795715
783,0,58.808815,72.602814,147.515656,222.277405,36.662632,135.147568,262.109467,20.714813,98.582253,289.400635,-11.423468,53.757923
784,0,58.825733,72.617836,147.427521,222.254990,36.628082,135.123444,262.101898,20.698715,98.566513,289.362244,-11.488160,53.689663
785,0,58.823601,72.552475,147.377335,222.249420,36.629520,135.083832,262.075043,20.594538,98.459854,289.350006,-11.609133,53.664551
786,0,58.838615,72.607178,147.340912,222.260239,36.617172,135.032394,262.077698,20.586571,98.446152,289.367828,-11.426576,53.542706
787,0,58.913403,72.659973,147.285339,222.294617,36.597202,134.974396,262.079071,20.461664,98.343971,289.328766,-11.538268,53.475273
788,0,58.988525,72.545166,147.173691,222.327377,36.583420,134.925064,262.084229,20.399382,98.290535,289.347046,-11.612634,53.411594
789,0,59.043427,72.497345,147.125473,222.380066,36.542145,134.863861,262.127533,20.340218,98.221458,289.240387,-11.946948,53.473297
790,0,59.075466,72.447510,147.119736,222.432541,36.503185,134.817108,262.141327,20.319860,98.142395,289.326172,-11.733212,53.272545
791,0,59.144520,72.380356,147.129776,222.472107,36.443905,134.795502,262.186615,20.264130,98.124367,289.376038,-11.762862,53.244057
792,0,59.190956,72.316383,147.102097,222.499069,36.407475,134.783569,262.257050,20.229521,98.131653,289.386353,-11.772742,53.221336
793,0,59.209866,72.283081,147.106750,222.548737,36.369183,134.765411,262.264954,20.225199,98.121552,289.466125,-11.798836,53.251842
794,0,59.111912,72.344597,147.262939,222.543839,36.368839,134.765274,262.288818,20.222805,98.128883,289.499664,-11.782667,53.238735
795,0,59.103088,72.316856,147.269775,222.540482,36.360664,134.767868,262.306396,20.196053,98.160545,289.506683,-11.773078,53.251396
796,0,59.105286,72.328163,147.249603,222.526535,36.342644,134.780914,262.312744,20.197395,98.159302,289.484955,-11.774940,53.195614
797,0,59.124504,72.324455,147.240814,222.548416,36.342113,134.798767,262.288788,20.214710,98.144989,289.510712,-11.674496,53.168049
798,0,59.184589,72.227890,147.122772,222.544037,36.346138,134.780685,262.245667,20.209904,98.121338,289.346222,-12.079338,53.345001
799,0,59.212391,72.283913,147.102280,222.571396,36.355164,134.786285,262.276642,20.146084,98.104408,289.321167,-12.185228,53.371090
800,0,59.267296,72.354797,147.006332,222.612701,36.392742,134.813171,262.278076,20.126577,98.140648,289.328247,-12.305768,53.427383
801,0,59.306099,72.392265,146.977356,222.630920,36.413586,134.811371,262.340881,20.136396,98.169624,289.379456,-12.340816,53.482204
802,0,59.329773,72.423775,147.016037,222.679169,36.433910,134.824570,262.400085,20.134800,98.153404,289.404114,-12.322358,53.493587
803,0,59.346035,72.392128,147.034012,222.684845,36.446697,134.848907,262.446686,20.201786,98.235054,289.472504,-12.242011,53.543030
804,0,59.334820,72.339905,147.086121,222.703888,36.454159,134.900864,262.483643,20.226711,98.280762,289.572388,-12.126432,53.576836
805,0,59.253880,72.244041,147.209671,222.707840,36.465088,134.964935,262.472046,20.272373,98.341568,289.624939,-12.033129,53.620308
806,0,59.277908,72.220848,147.189026,222.706055,36.469021,135.006500,262.491547,20.308645,98.388878,289.658020,-11.913787,53.641865
807,0,59.268486,72.192154,147.176498,222.678452,36.454937,135.056549,262.476135,20.312994,98.434837,289.648926,-11.885607,53.666458
808,0,59.184132,72.284668,147.307312,222.690048,36.434563,135.100632,262.481750,20.350920,98.480202,289.673798,-11.838064,53.711891
809,0,59.196609,72.305794,147.270477,222.675964,36.416344,135.117752,262.520996,20.341356,98.513023,289.656647,-11.868591,53.765461
810,0,59.182487,72.330513,147.306458,222.641388,36.416126,135.114868,262.453156,20.300200,98.504021,289.646149,-11.934860,53.791489
811,0,59.227764,72.358887,147.255829,222.648956,36.424026,135.119675,262.468323,20.221575,98.529816,289.582153,-12.049146,53.806408
812,0,59.261677,72.245972,147.196777,222.637024,36.420532,135.089264,262.470001,20.200775,98.512543,289.569794,-12.151077,53.801270
813,0,59.351433,72.280869,147.096100,222.637848,36.411266,135.107590,262.415039,20.155731,98.476585,289.535797,-12.208653,53.806522
814,0,59.264900,72.216843,147.220123,222.644821,36.417171,135.105682,262.411682,20.138651,98.492821,289.510193,-12.261433,53.831337
815,0,59.272266,72.208061,147.210556,222.658737,36.432045,135.087067,262.409851,20.099411,98.505150,289.516083,-12.301632,53.825371
816,0,59.271469,72.208702,147.224579,222.659744,36.440056,135.085678,262.390869,20.085163,98.453537,289.549164,-12.333169,53.832531
817,0,59.262547,72.207886,147.225647,222.646484,36.455414,135.079681,262.406647,20.100439,98.447098,289.538879,-12.286560,53.823719
818,0,59.245586,72.201279,147.225479,222.666122,36.518341,135.054398,262.411102,20.149439,98.432304,289.564331,-12.205819,53.779202
819,0,59.251537,72.206169,147.200043,222.659012,36.571075,135.042969,262.431091,20.272429,98.403885,289.599640,-12.101037,53.753410
820,0,59.271023,72.211937,147.180099,222.681717,36.598206,135.002487,262.471436,20.370255,98.367981,289.597687,-11.905458,53.662182
821,0,59.250450,72.199799,147.210770,222.678879,36.604042,135.012283,262.463898,20.494347,98.324089,289.636017,-11.761106,53.579033
822,0,59.230968,72.201782,147.241806,222.660355,36.601582,135.019241,262.451172,20.539848,98.313667,289.638855,-11.680821,53.512634
823,0,59.205425,72.197281,147.223160,222.652679,36.591228,134.981873,262.425079,20.541451,98.319031,289.597137,-11.413197,53.379532
824,0,59.189106,72.240311,147.239166,222.636612,36.609444,134.971298,262.393341,20.517221,98.276299,289.446442,-11.734411,53.448463
825,0,59.148300,72.266388,147.266022,222.607300,36.601864,134.935806,262.344452,20.483114,98.217804,289.433197,-11.520388,53.304031
826,0,59.138245,72.297295,147.206253,222.599365,36.599144,134.949554,262.286194,20.432671,98.221283,289.376343,-11.597046,53.295921
827,0,59.223648,72.347527,147.081512,222.533203,36.582333,134.941620,262.242401,20.386349,98.204765,289.331146,-11.665086,53.313683
828,0,59.158337,72.346519,147.076843,222.486877,36.569317,134.924866,262.212524,20.332720,98.220444,289.217133,-11.989285,53.457176
829,0,59.028736,72.286407,147.179428,222.459900,36.541237,134.918854,262.121094,20.278234,98.177841,289.160492,-12.068484,53.460613
830,0,59.016888,72.269005,147.186768,222.406342,36.484138,134.881607,262.094482,20.226961,98.198006,289.116058,-12.084651,53.462269
831,0,58.998222,72.264374,147.201859,222.364441,36.480770,134.874817,262.029053,20.165613,98.179878,289.027802,-12.181930,53.426804
832,0,59.070000,72.301750,147.100647,222.321838,36.479202,134.859970,261.990265,20.149906,98.172195,288.985077,-12.201977,53.429962
833,0,59.020836,72.293350,147.120026,222.315475,36.498055,134.832169,261.987030,20.157381,98.098434,288.957764,-12.170489,53.366722
834,0,58.937874,72.247505,147.211533,222.283020,36.539997,134.818573,261.995422,20.193733,98.087708,288.912628,-12.129313,53.324818
835,0,58.871204,72.244781,147.164291,222.233047,36.573296,134.802734,261.913910,20.279991,98.037392,288.838165,-12.027491,53.218788
836,0,58.840515,72.248024,147.178146,222.232971,36.544521,134.807510,261.894043,20.319170,97.990448,288.778259,-11.927326,53.130577
837,0,58.787720,72.241814,147.164505,222.206802,36.454399,134.816635,261.894806,20.313896,97.976562,288.667542,-11.909496,53.054890
838,0,58.766373,72.263702,147.088776,222.183594,36.414833,134.814957,261.859436,20.245113,97.957596,288.598877,-11.977066,53.046303
839,0,58.757576,72.268745,147.066010,222.132126,36.367157,134.760208,261.812164,20.222027,97.930534,288.540070,-12.099056,53.021935
840,0,58.682335,72.252060,147.028900,222.101562,36.325378,134.743011,261.763947,20.139923,97.896217,288.435638,-12.191295,53.020947
841,0,58.607292,72.268272,147.017853,222.051071,36.312550,134.708740,261.708435,20.092693,97.871727,288.384705,-12.252189,52.968468
842,0,58.611084,72.261208,146.981003,222.041946,36.332024,134.673798,261.667236,20.077312,97.815857,288.365112,-12.298772,52.951958
843,0,58.576309,72.262520,146.964081,221.976608,36.356941,134.598526,261.640808,20.059292,97.735443,288.301514,-12.334975,52.895107
844,0,58.559963,72.234940,146.963684,221.979111,36.388317,134.531845,261.607269,20.059471,97.674469,288.253448,-12.325193,52.834846
845,0,58.544460,72.230316,146.963501,221.983963,36.452404,134.498428,261.606171,20.083441,97.637146,288.258240,-12.286825,52.794479
846,0,58.568653,72.217972,146.943314,221.984055,36.499859,134.474380,261.575836,20.158527,97.615578,288.273651,-12.202180,52.727985
847,0,58.547749,72.191750,146.954117,221.982559,36.561188,134.435104,261.588013,20.241369,97.566315,288.316956,-12.103218,52.674606
848,0,58.540615,72.200043,146.957367,221.997513,36.625759,134.423737,261.663269,20.327450,97.566261,288.408661,-11.944256,52.662430
849,0,58.518368,72.185974,146.996353,222.005310,36.732582,134.435196,261.693085,20.451746,97.598160,288.466492,-11.793869,52.682014
850,0,58.545547,72.212563,146.960266,222.111389,36.818527,134.492355,261.726807,20.636137,97.592812,288.577606,-11.600845,52.716599
851,0,58.533680,72.217232,146.970078,222.141937,36.888107,134.520538,261.778778,20.741753,97.618263,288.691345,-11.387183,52.725777
852,0,58.562546,72.275955,146.948105,222.188065,36.925636,134.533783,261.788696,20.838120,97.640823,288.732269,-11.265843,52.737091
853,0,58.571468,72.346558,146.941849,222.190781,36.943165,134.555344,261.786041,20.862103,97.688736,288.736969,-11.264095,52.796860
854,0,58.629654,72.408882,146.866211,222.194565,36.938770,134.597641,261.808258,20.824883,97.681503,288.746429,-11.346581,52.860405
855,0,58.631447,72.416145,146.899704,222.216614,36.927956,134.568878,261.803314,20.821350,97.713715,288.737335,-11.361983,52.878803
856,0,58.693691,72.460983,146.824097,222.229584,36.918419,134.558456,261.811218,20.797703,97.702736,288.743896,-11.391574,52.875046
857,0,58.738075,72.440491,146.798965,222.256165,36.935997,134.556320,261.793243,20.783798,97.675232,288.770386,-11.437588,52.882793
858,0,58.719330,72.441338,146.802231,222.237869,36.958023,134.544098,261.801300,20.739450,97.651642,288.762604,-11.425410,52.891808
859,0,58.737934,72.460350,146.776764,222.236877,36.970203,134.527267,261.802032,20.762575,97.639923,288.761353,-11.446735,52.887207
860,0,58.754902,72.462761,146.730499,222.252762,37.025993,134.508331,261.832794,20.796074,97.634674,288.822052,-11.389295,52.903053
861,0,58.730907,72.460808,146.669647,222.235596,37.042000,134.506836,261.858765,20.803804,97.637352,288.854797,-11.373435,52.884453
862,0,58.753407,72.441589,146.674332,222.273132,37.086300,134.479156,261.883606,20.868574,97.613640,289.014130,-11.030546,52.732883
863,0,58.842579,72.466805,146.653198,222.293518,37.144428,134.473892,261.917664,20.947170,97.579826,289.051025,-10.940302,52.730499
864,0,58.870243,72.476807,146.654114,222.352371,37.181561,134.445328,261.965759,21.036007,97.564392,289.076996,-11.057039,52.837414
865,0,58.892258,72.459000,146.646255,222.369339,37.243839,134.493225,262.033997,21.107412,97.602684,289.163574,-10.892332,52.831387
866,0,58.896473,72.456299,146.719193,222.411469,37.278992,134.511795,262.097656,21.302656,97.592964,289.202576,-10.652144,52.771412
867,0,58.917149,72.506363,146.749908,222.444046,37.318947,134.574493,262.068176,21.398731,97.618942,289.347107,-10.220326,52.641777
868,0,58.931435,72.503601,146.783875,222.394852,37.357689,134.572021,262.068237,21.538574,97.662567,289.298370,-10.284477,52.782104
869,0,58.949238,72.494423,146.813004,222.411163,37.387459,134.664795,262.107880,21.592278,97.703293,289.344940,-10.138771,52.810001
870,0,58.925785,72.600906,146.944611,222.388855,37.408997,134.765411,262.128784,21.687754,97.798241,289.428558,-9.998784,52.931091
871,0,58.900162,72.590797,146.988358,222.367798,37.438957,134.872131,262.178955,21.751339,97.973099,289.510284,-9.883877,53.035275
872,0,58.884380,72.631065,147.054565,222.346848,37.406506,135.013779,262.181458,21.769192,98.135834,289.574738,-9.864010,53.211040
873,0,58.850380,72.626633,147.133972,222.307297,37.407394,135.169434,262.143829,21.720930,98.344780,289.625885,-9.888514,53.449471
874,0,58.824760,72.648003,147.211990,222.249908,37.405102,135.382965,262.088196,21.711582,98.569427,289.672485,-9.659834,53.612629
875,0,58.728619,72.630661,147.355713,222.126862,37.399994,135.575470,262.010986,21.677395,98.768784,289.660614,-9.672120,53.883369
876,0,58.609085,72.633392,147.467377,222.016205,37.419613,135.862106,261.944580,21.670841,99.053574,289.621613,-9.667315,54.173225
877,0,58.491180,72.720291,147.691162,221.863586,37.471024,136.200989,261.853516,21.698225,99.443756,289.514221,-9.604829,54.550568
878,0,58.346809,72.689896,147.842087,221.711182,37.553085,136.612350,261.720917,21.813951,99.899445,289.406677,-9.478568,54.990486
879,0,58.116989,72.675339,148.073990,221.497177,37.616348,137.167892,261.626709,21.972965,100.513069,289.312561,-9.423136,55.677574
880,0,57.856251,72.682220,148.320099,221.213623,37.714622,137.898361,261.456696,22.189066,101.318123,289.368744,-8.816000,56.450790
881,0,57.493526,72.670212,148.627777,220.918274,37.864285,138.774536,261.232849,22.411522,102.191544,289.329315,-8.665711,57.600147
882,0,57.029648,72.691772,148.983215,220.570496,38.019234,139.821930,261.003510,22.788853,103.333618,289.359314,-8.019933,58.596832
883,0,56.541855,72.763100,149.334000,220.141769,38.221554,140.967880,260.787811,23.135210,104.733994,289.273071,-7.775291,60.127548
884,0,56.008011,72.848183,149.809418,219.703598,38.446709,142.289734,260.717407,23.525007,106.265778,289.374817,-7.291234,61.762726
885,0,55.479221,73.128944,150.302368,219.237030,38.757095,143.824051,260.549561,23.935835,108.029190,289.563446,-6.769795,63.596390
886,0,54.938202,73.222679,150.794418,218.800217,39.069275,145.328094,260.362091,24.422199,109.907120,289.878143,-6.358118,65.732124
887,0,54.413197,73.231552,151.322159,218.334152,39.433849,147.060516,260.286652,24.909138,112.032730,290.023499,-5.863950,67.934029
888,0,53.859650,73.393669,151.908035,217.871933,39.804588,148.848053,260.326691,25.445465,114.211220,290.488068,-5.255461,70.406525
889,0,53.323853,73.515129,152.435608,217.470612,40.216858,150.796097,260.301300,26.027599,116.607903,290.889221,-4.597411,72.939728
890,0,52.728954,73.614166,152.983231,217.075058,40.621719,152.812912,260.516632,26.531471,119.086708,291.464661,-3.612690,75.451271
891,0,52.070930,73.761749,153.672455,216.618073,41.133274,154.841736,260.572754,27.281994,121.684555,292.099640,-2.868664,78.283173
892,0,51.585499,73.773895,154.149475,216.468033,41.515896,157.132004,260.937683,27.881887,124.380257,292.704102,-2.172050,81.167847
893,0,51.009804,73.841614,154.806702,215.997040,42.007153,159.164337,260.963531,28.615435,127.013954,293.382294,-1.297721,83.909164
894,0,50.538013,73.896637,155.346130,215.701004,42.459290,161.201706,261.231506,29.010538,129.710434,293.965210,-0.636789,86.727837
895,0,50.002029,73.839790,155.859177,215.292389,42.880699,163.205978,261.487030,29.547493,132.302109,294.606842,0.173555,89.488220
896,0,49.563610,73.763664,156.374329,215.025772,43.264359,165.067825,261.492432,30.293936,134.682236,295.214996,1.124403,91.877678
897,0,49.164417,73.788994,156.866516,214.718719,43.660496,166.844055,261.705750,30.962627,136.958054,295.650970,1.883695,94.191803
898,0,48.809593,73.870819,157.308167,214.502777,44.066929,168.597702,261.881195,31.499952,139.183258,296.095459,2.562972,96.319267
899,0,48.530567,73.944115,157.638077,214.226471,44.437279,170.148758,262.061432,32.061203,141.195282,296.470093,3.131082,98.389793
900,0,48.350761,73.993401,157.955048,214.168808,44.786690,171.683563,262.277283,32.467449,143.173843,296.851379,3.559897,100.185326
901,0,48.157639,74.171234,158.210724,214.066788,45.147053,173.063965,262.548462,32.868954,144.962372,297.045959,3.593430,101.971634
902,0,48.134201,74.298698,158.313507,213.951584,45.449768,174.274902,262.838623,33.313175,146.621674,297.235168,3.892126,103.300865
903,0,48.083611,74.433121,158.382431,213.925522,45.736603,175.434845,263.191437,33.585850,148.110062,297.326508,3.856220,104.514442
904,0,48.121342,74.524292,158.363846,213.911819,45.981827,176.408325,263.464752,33.773968,149.487640,297.150726,3.737971,105.305687
905,0,48.193687,74.570877,158.312347,213.957886,46.154583,177.265350,263.869324,33.992077,150.666336,296.528381,3.262763,105.676262
906,0,48.298340,74.551140,158.279205,214.118301,46.261513,177.996017,264.156250,34.162663,151.634216,295.550171,2.880800,105.282326
907,0,48.389168,74.461403,158.185471,214.326523,46.339291,178.548920,264.593811,34.303539,152.339737,293.788239,2.206965,104.115189
908,0,48.543358,74.287788,158.046143,214.599060,46.264751,178.885178,265.038239,34.304852,152.687027,291.472504,1.618180,102.432167
909,0,48.836674,74.098969,157.812515,214.916382,46.086742,179.014008,265.500946,34.230461,152.702194,289.081482,1.024003,100.555901
910,0,49.107761,73.874283,157.593674,215.269882,45.821106,178.819153,265.984344,34.102859,152.394974,286.495300,0.459816,98.762672
911,0,49.458233,73.591675,157.337540,215.758392,45.491737,178.500671,266.538574,33.885544,151.952484,284.002167,-0.072084,96.909416
912,0,49.933342,73.316414,157.005325,216.226410,45.069504,177.930298,267.336517,33.459476,151.347809,281.178162,-0.724543,95.081902
913,0,50.416088,73.094627,156.641342,216.786453,44.615437,177.197266,267.847870,33.164543,150.492981,278.012939,-1.344284,93.212288
