Trajectories
100
,,Sano:Wrist,,,Sano:MPH3,,,Sano:PIP3,,,Sano:DIP3,,,
Frame,Sub Frame,X,Y,Z,X,Y,Z,X,Y,Z,X,Y,Z
,,mm,mm,mm,mm,mm,mm,mm,mm,mm,mm,mm,mm
1,0,-149.691605,115.749275,46.585247,-9.416717,77.387512,72.308655,44.938469,48.687950,66.021004,53.760532,4.619183,15.056943
2,0,-149.690414,115.752609,46.585922,-9.448629,77.366264,72.293083,44.899170,48.692322,66.026825,53.735172,4.627952,15.063279
3,0,-149.746445,115.774864,46.557545,-9.473235,77.376823,72.283501,44.868484,48.707664,66.029686,53.725243,4.658332,15.056641
4,0,-149.771881,115.746246,46.550270,-9.535180,77.411186,72.278427,44.849270,48.745678,66.030800,53.722874,4.661488,15.068446
5,0,-149.770172,115.751076,46.491352,-9.554656,77.432739,72.225227,44.825222,48.805016,66.031143,53.726162,4.688400,15.055513
6,0,-149.780151,115.765572,46.460358,-9.603149,77.441055,72.193153,44.798294,48.827641,66.028419,53.703293,4.678839,15.083755
7,0,-149.785812,115.787071,46.456036,-9.638627,77.440674,72.177017,44.786026,48.840752,66.013687,53.679089,4.708909,15.087759
8,0,-149.824020,115.800911,46.423824,-9.648720,77.443703,72.153412,44.758514,48.878021,66.007912,53.655849,4.680114,15.105259
9,0,-149.858780,115.789146,46.425724,-9.663933,77.486748,72.120361,44.724880,48.882328,65.999611,53.660458,4.704146,15.093830
10,0,-149.852570,115.805115,46.393204,-9.690172,77.486435,72.070976,44.729851,48.926086,65.989067,53.675823,4.719009,15.106636
11,0,-149.875900,115.858414,46.392498,-9.743997,77.506523,72.073967,44.688568,48.941673,65.961166,53.666878,4.700540,15.109706
12,0,-149.861740,115.844528,46.426090,-9.748413,77.518448,72.052734,44.690056,48.936844,65.968689,53.644081,4.695211,15.116867
13,0,-149.845642,115.873413,46.424274,-9.693224,77.526726,72.030716,44.718346,48.949017,65.986214,53.652142,4.704064,15.116740
14,0,-149.850250,115.875504,46.409405,-9.693934,77.529938,72.006897,44.719894,48.970348,65.950264,53.661572,4.690372,15.123480
15,0,-149.825562,115.879234,46.403622,-9.710698,77.549950,72.000298,44.754204,48.990845,65.925774,53.682125,4.681138,15.147925
16,0,-149.802719,115.878906,46.412525,-9.709166,77.545563,71.990715,44.755219,48.959377,65.921310,53.667473,4.681657,15.130811
17,0,-149.740799,115.912460,46.395672,-9.637275,77.531860,71.996635,44.799904,48.944504,65.916145,53.645813,4.650691,15.148333
18,0,-149.697586,115.875572,46.416359,-9.630208,77.510963,72.024216,44.806244,48.953270,65.911827,53.669796,4.667058,15.115948
19,0,-149.721375,115.917068,46.440990,-9.597301,77.512497,72.000137,44.809101,48.957470,65.912903,53.647953,4.635270,15.148334
20,0,-149.699081,115.898003,46.448315,-9.593205,77.502014,71.988838,44.804020,48.940994,65.882607,53.702965,4.612585,15.127832
21,0,-149.703857,115.919983,46.448181,-9.630269,77.505089,71.984879,44.831295,48.923767,65.894920,53.678951,4.631739,15.104295
22,0,-149.620651,115.924522,46.483246,-9.606548,77.493423,71.979149,44.844902,48.910751,65.892700,53.692574,4.598330,15.122227
23,0,-149.651703,115.943932,46.525890,-9.604459,77.475052,72.011658,44.838810,48.909908,65.893822,53.648998,4.588572,15.121260
24,0,-149.660416,115.964767,46.493465,-9.598441,77.493629,72.048027,44.836674,48.903893,65.897942,53.660671,4.607305,15.134429
25,0,-149.677521,115.992867,46.487583,-9.631124,77.487984,72.032921,44.782036,48.903709,65.910812,53.613979,4.594030,15.114674
26,0,-149.727676,115.979988,46.488106,-9.628263,77.509171,72.055878,44.739334,48.903614,65.934639,53.580021,4.564806,15.141479
27,0,-149.740158,115.994400,46.474297,-9.659245,77.488541,72.013802,44.725815,48.893398,65.925507,53.606209,4.610164,15.140147
28,0,-149.737564,116.012932,46.467663,-9.715477,77.516785,72.018463,44.708267,48.903835,65.920738,53.575249,4.606177,15.153880
29,0,-149.767166,116.026138,46.447693,-9.767118,77.513557,72.009216,44.633484,48.907860,65.926994,53.587818,4.640966,15.138895
30,0,-149.817764,116.068657,46.454117,-9.806408,77.539940,71.967941,44.596935,48.927418,65.926254,53.495319,4.610983,15.138548
31,0,-149.834518,116.066177,46.421299,-9.843677,77.572723,71.983986,44.558601,48.953522,65.927231,53.500019,4.590512,15.161154
32,0,-149.868301,116.049149,46.423283,-9.859366,77.579132,71.938354,44.544098,48.990387,65.913643,53.511639,4.641234,15.133226
33,0,-149.898849,116.105507,46.418545,-9.914701,77.619156,71.901367,44.522209,49.028019,65.907387,53.490616,4.648610,15.131688
34,0,-149.916824,116.135162,46.365482,-9.922935,77.640144,71.877251,44.479385,49.041672,65.890816,53.448338,4.667834,15.164248
35,0,-149.918640,116.116005,46.368366,-9.894111,77.669189,71.872688,44.474277,49.085236,65.875603,53.450829,4.685625,15.128894
36,0,-149.908936,116.109993,46.373131,-9.983612,77.678802,71.826508,44.433239,49.082733,65.841682,53.464539,4.689816,15.141132
37,0,-149.920822,116.154190,46.364803,-9.918013,77.700264,71.843681,44.462502,49.123070,65.841507,53.460472,4.699121,15.155126
38,0,-149.928604,116.160194,46.379410,-9.906504,77.681412,71.854599,44.469570,49.114056,65.862221,53.458210,4.696869,15.144209
39,0,-149.917801,116.101868,46.367493,-9.941321,77.681358,71.883507,44.472958,49.089367,65.868004,53.468822,4.695790,15.132002
40,0,-149.927490,116.102310,46.376625,-9.927170,77.664612,71.885086,44.489685,49.064346,65.850639,53.471600,4.669260,15.151465
41,0,-149.952911,116.094948,46.398354,-9.956108,77.642014,71.872971,44.471542,49.028904,65.851372,53.459255,4.667064,15.138165
42,0,-149.917465,116.067581,46.391865,-9.937187,77.580849,71.894592,44.436310,48.983986,65.872261,53.405704,4.603584,15.154414
43,0,-149.933624,116.056335,46.386066,-9.978431,77.571388,71.884109,44.446609,48.965187,65.890793,53.426380,4.586522,15.155857
44,0,-149.914795,116.063889,46.373188,-9.974709,77.550629,71.887939,44.434338,48.950077,65.879387,53.428596,4.618808,15.119612
45,0,-149.914536,116.046333,46.410095,-9.942341,77.557991,71.900314,44.451012,48.942516,65.887672,53.430313,4.592226,15.148085
46,0,-149.938263,116.048668,46.403645,-9.985579,77.547516,71.878410,44.454929,48.949184,65.892685,53.375366,4.566529,15.165074
47,0,-149.939423,116.069931,46.357201,-9.944417,77.578064,71.882423,44.428513,48.962727,65.861870,53.399422,4.564824,15.168320
48,0,-149.939163,116.055183,46.345631,-9.991577,77.597908,71.863708,44.421413,48.967995,65.855850,53.434486,4.585382,15.164003
49,0,-149.941727,116.089455,46.362442,-9.963130,77.633957,71.852592,44.452435,49.039692,65.829285,53.410439,4.596344,15.167930
50,0,-149.911530,116.131149,46.305641,-9.963921,77.656509,71.817360,44.440472,49.048656,65.815346,53.414543,4.609311,15.152010
51,0,-149.945297,116.125755,46.304966,-9.979701,77.669472,71.788261,44.457848,49.075127,65.810143,53.420879,4.617355,15.165922
52,0,-149.940231,116.157806,46.277069,-9.965788,77.680542,71.744186,44.450920,49.117294,65.777397,53.403973,4.640984,15.131041
53,0,-149.927643,116.159836,46.268261,-9.981883,77.702782,71.726845,44.447407,49.112690,65.771461,53.435310,4.667843,15.115290
54,0,-149.954407,116.123825,46.219635,-10.000247,77.711212,71.686211,44.414440,49.134636,65.760513,53.398087,4.643670,15.111322
55,0,-149.950226,116.117447,46.223770,-10.029578,77.703255,71.679581,44.405399,49.146595,65.763496,53.426201,4.673045,15.131071
56,0,-149.972427,116.138260,46.204269,-10.007982,77.709290,71.688255,44.370022,49.136986,65.735069,53.396431,4.645999,15.110719
57,0,-149.937210,116.108414,46.180370,-10.027807,77.726944,71.689758,44.370754,49.133190,65.742615,53.434731,4.644853,15.091827
58,0,-149.951675,116.123428,46.147987,-10.024917,77.706841,71.621101,44.363052,49.143837,65.724533,53.414341,4.610434,15.133146
59,0,-149.950241,116.144913,46.135674,-10.012728,77.715042,71.610588,44.396061,49.143536,65.719986,53.388607,4.623127,15.119510
60,0,-149.962143,116.104057,46.081581,-10.039769,77.750763,71.589188,44.383366,49.159737,65.706406,53.399158,4.610383,15.138362
61,0,-149.949387,116.100014,46.087418,-10.014704,77.748413,71.554276,44.417732,49.183399,65.694534,53.418537,4.619330,15.116495
62,0,-149.920029,116.095062,46.053707,-9.980601,77.775185,71.523529,44.430325,49.216335,65.649956,53.427200,4.668986,15.086536
63,0,-149.911697,116.133820,46.002392,-10.020044,77.793282,71.459305,44.426476,49.236885,65.619278,53.486778,4.694977,15.088329
64,0,-149.890884,116.132080,45.981091,-9.998363,77.804222,71.452225,44.429749,49.251114,65.606270,53.468861,4.681671,15.094933
65,0,-149.883911,116.139442,45.977497,-10.013312,77.809883,71.433372,44.446095,49.254509,65.601982,53.436062,4.629047,15.095360
66,0,-149.844635,116.147202,45.954601,-9.989964,77.809952,71.406441,44.435741,49.244049,65.595154,53.481434,4.668947,15.089378
67,0,-149.899384,116.197716,45.943935,-9.992949,77.830482,71.420441,44.414150,49.242176,65.575241,53.422382,4.630966,15.119616
68,0,-149.914139,116.219482,45.921131,-10.048883,77.850075,71.441895,44.356468,49.255894,65.600845,53.420692,4.663610,15.074237
69,0,-149.917755,116.249680,45.930012,-10.069332,77.867020,71.433044,44.331421,49.257435,65.617645,53.418457,4.694393,15.109004
70,0,-149.908417,116.286636,45.922951,-10.055796,77.924820,71.398651,44.305801,49.304264,65.611153,53.361244,4.708543,15.111192
71,0,-149.918579,116.291550,45.904858,-10.080082,77.992073,71.329964,44.331646,49.371792,65.583809,53.337109,4.714229,15.127493
72,0,-149.932205,116.382797,45.856567,-10.054596,78.032242,71.332214,44.324417,49.408550,65.543816,53.343842,4.727967,15.128366
73,0,-149.902145,116.358543,45.850246,-10.010334,78.104942,71.263664,44.349495,49.505234,65.523682,53.407455,4.763731,15.170648
74,0,-149.876160,116.428192,45.801430,-9.989463,78.159279,71.240715,44.389763,49.547646,65.501465,53.432144,4.816443,15.142238
75,0,-149.822403,116.412521,45.780003,-9.956132,78.227791,71.186676,44.469971,49.576145,65.481056,53.415119,4.816119,15.141151
76,0,-149.796783,116.397652,45.734154,-9.949730,78.241699,71.182289,44.510281,49.627159,65.432671,53.451401,4.796455,15.158549
77,0,-149.795380,116.412567,45.701576,-9.892434,78.222000,71.154724,44.528217,49.628059,65.422096,53.465553,4.797210,15.142604
78,0,-149.788437,116.387764,45.702209,-9.919488,78.195374,71.143417,44.536640,49.596581,65.439903,53.517643,4.794334,15.138572
79,0,-149.771622,116.387421,45.673302,-9.874922,78.136734,71.124214,44.549252,49.569309,65.426201,53.486210,4.765120,15.116121
80,0,-149.784378,116.363876,45.655582,-9.873688,78.105972,71.146820,44.541817,49.513996,65.438957,53.498550,4.729832,15.082055
81,0,-149.793655,116.332329,45.686222,-9.901684,78.081299,71.143822,44.547359,49.481441,65.453461,53.481445,4.724206,15.076824
82,0,-149.781845,116.297157,45.681229,-9.897181,78.069489,71.169029,44.524288,49.467606,65.470352,53.509491,4.702135,15.083243
83,0,-149.808670,116.270905,45.654194,-9.929826,78.046013,71.208641,44.482441,49.454765,65.481049,53.507538,4.702359,15.084190
84,0,-149.795135,116.232124,45.654179,-9.938770,78.074013,71.225609,44.492493,49.464436,65.494141,53.462456,4.738533,15.104708
85,0,-149.804047,116.259598,45.649315,-9.930199,78.084396,71.224342,44.499786,49.481255,65.485107,53.479137,4.731005,15.124775
86,0,-149.807190,116.263039,45.642975,-9.932618,78.106056,71.232582,44.498329,49.515160,65.465408,53.464108,4.735251,15.115563
87,0,-149.811279,116.285980,45.652981,-9.947363,78.178032,71.190620,44.524246,49.544319,65.462799,53.477673,4.748792,15.153286
88,0,-149.807129,116.320892,45.613781,-9.906778,78.214172,71.164017,44.515450,49.591888,65.454636,53.477325,4.760273,15.132270
89,0,-149.787399,116.319595,45.638138,-9.902661,78.232712,71.166756,44.544617,49.606098,65.429825,53.496033,4.771805,15.127458
90,0,-149.779602,116.370003,45.671757,-9.854880,78.259949,71.191109,44.578548,49.635780,65.416092,53.504303,4.823558,15.147957
91,0,-149.775085,116.370872,45.675251,-9.851757,78.269287,71.196472,44.576889,49.639282,65.440422,53.504215,4.806647,15.139318
92,0,-149.767380,116.388504,45.669437,-9.843749,78.264755,71.246841,44.598114,49.633743,65.461128,53.498566,4.810770,15.123496
93,0,-149.788788,116.424866,45.703163,-9.810711,78.252708,71.296829,44.618870,49.620220,65.452477,53.508656,4.812440,15.112750
94,0,-149.744217,116.359589,45.736076,-9.793020,78.227463,71.313698,44.628014,49.579845,65.470558,53.490082,4.789761,15.121093
95,0,-149.800491,116.399971,45.717300,-9.799309,78.191208,71.326599,44.641659,49.569122,65.493629,53.495144,4.797700,15.108822
96,0,-149.780685,116.383827,45.747543,-9.782240,78.166435,71.316757,44.637856,49.541248,65.490730,53.531261,4.832571,15.066398
97,0,-149.775009,116.317238,45.797325,-9.751936,78.151321,71.348534,44.675709,49.520149,65.515373,53.540779,4.813767,15.092995
98,0,-149.733810,116.328346,45.825142,-9.726588,78.131721,71.406120,44.716602,49.488140,65.521294,53.558914,4.773226,15.095387
99,0,-149.701996,116.308517,45.849255,-9.687611,78.077240,71.401459,44.721092,49.468475,65.523254,53.585136,4.769289,15.080030
100,0,-149.716980,116.311234,45.907505,-9.644075,78.033775,71.486526,44.780323,49.438828,65.574486,53.595657,4.757210,15.087092
101,0,-149.667038,116.286942,45.952244,-9.634889,78.024216,71.515862,44.808239,49.370361,65.581093,53.596279,4.734074,15.095388
102,0,-149.652542,116.288246,46.013390,-9.598549,77.982819,71.586922,44.830570,49.336060,65.584557,53.594692,4.728450,15.087671
103,0,-149.631424,116.269508,46.052368,-9.623574,77.941818,71.576469,44.880905,49.303596,65.634300,53.589417,4.698304,15.093616
104,0,-149.648834,116.333542,46.102158,-9.533679,77.900642,71.630417,44.897911,49.259487,65.640869,53.560215,4.686490,15.108706
105,0,-149.643692,116.292336,46.164490,-9.527843,77.855995,71.659302,44.910679,49.226791,65.655838,53.609570,4.684095,15.087457
106,0,-149.612381,116.297234,46.182072,-9.503852,77.812332,71.699081,44.905231,49.209030,65.662804,53.588566,4.651210,15.041067
107,0,-149.605179,116.323944,46.215412,-9.518229,77.805473,71.728561,44.902084,49.163906,65.662453,53.584953,4.641064,15.026902
108,0,-149.631165,116.347420,46.241764,-9.521473,77.793846,71.763222,44.883278,49.133858,65.712044,53.566418,4.629987,15.041491
109,0,-149.609512,116.341217,46.289047,-9.571849,77.776749,71.799820,44.852894,49.122498,65.731667,53.525196,4.654861,15.054325
110,0,-149.631317,116.378410,46.317711,-9.565556,77.772537,71.806236,44.826900,49.101265,65.741180,53.521992,4.666364,15.052794
111,0,-149.665390,116.400597,46.320995,-9.615979,77.789185,71.836502,44.804455,49.107468,65.738205,53.514393,4.652451,15.049080
112,0,-149.701370,116.407555,46.317142,-9.659727,77.783447,71.847496,44.749695,49.125694,65.738052,53.503056,4.662792,15.053207
113,0,-149.786591,116.426422,46.337997,-9.707619,77.807159,71.826736,44.692463,49.133938,65.757896,53.463543,4.697734,15.079083
114,0,-149.764099,116.406303,46.318493,-9.729231,77.825798,71.852921,44.678394,49.127171,65.760635,53.465477,4.717195,15.074542
115,0,-149.776352,116.418663,46.309944,-9.765045,77.809486,71.848000,44.638790,49.138477,65.764412,53.460388,4.716982,15.080670
116,0,-149.847504,116.462517,46.320087,-9.788874,77.818283,71.875725,44.587505,49.159882,65.778366,53.391754,4.686051,15.084218
117,0,-149.830368,116.425652,46.350372,-9.830562,77.813866,71.855995,44.583672,49.160088,65.789520,53.373257,4.721166,15.102311
118,0,-149.915146,116.433563,46.350533,-9.936215,77.812027,71.877945,44.546902,49.124332,65.798340,53.366364,4.716870,15.107242
119,0,-149.945587,116.429161,46.338081,-9.973716,77.797615,71.866478,44.488556,49.112331,65.822838,53.347607,4.701501,15.111767
120,0,-149.939148,116.428192,46.329971,-9.998092,77.780678,71.891632,44.454689,49.114822,65.847191,53.308697,4.661190,15.133616
121,0,-150.032562,116.405815,46.360191,-10.013402,77.745689,71.913643,44.421829,49.096226,65.862679,53.297482,4.670743,15.125282
122,0,-150.000977,116.381599,46.331379,-10.034841,77.742310,71.925842,44.376076,49.074413,65.858879,53.279743,4.693011,15.153932
123,0,-150.007172,116.382050,46.334900,-10.037716,77.703964,71.940475,44.347439,49.067383,65.862305,53.270283,4.673914,15.143700
124,0,-150.021042,116.360565,46.317482,-10.070755,77.692619,71.972870,44.345402,49.057381,65.872803,53.265015,4.659915,15.151546
125,0,-150.034363,116.346321,46.351471,-10.087070,77.666222,71.981346,44.315105,49.043953,65.896469,53.266136,4.661289,15.163016
126,0,-150.090790,116.366867,46.339756,-10.084511,77.651428,71.953392,44.299965,49.036858,65.901207,53.257095,4.675136,15.175092
127,0,-150.076538,116.306068,46.369347,-10.114332,77.611618,71.989014,44.325630,49.031315,65.916336,53.231750,4.662241,15.183229
128,0,-150.120270,116.313232,46.377403,-10.119136,77.637459,72.019882,44.308067,49.002384,65.932961,53.231258,4.662410,15.181647
129,0,-150.102753,116.275070,46.397476,-10.141406,77.601814,72.021866,44.266304,48.983902,65.916695,53.216984,4.656164,15.159376
130,0,-150.128784,116.284698,46.387058,-10.173838,77.582153,72.027870,44.294533,48.977711,65.931938,53.231731,4.668271,15.173892
131,0,-150.158081,116.304390,46.384335,-10.202150,77.592438,72.021538,44.208702,48.983856,65.932892,53.221249,4.683604,15.175345
132,0,-150.156616,116.287292,46.381241,-10.193756,77.590218,72.028854,44.233894,48.999950,65.947197,53.213696,4.650540,15.184065
133,0,-150.156219,116.274628,46.342289,-10.193606,77.593369,71.998863,44.237186,49.002251,65.938156,53.206467,4.664701,15.174952
134,0,-150.164963,116.211533,46.307247,-10.231485,77.582336,71.971146,44.211632,48.996819,65.921936,53.206604,4.672180,15.188341
135,0,-150.150024,116.211609,46.283298,-10.229517,77.581085,71.979149,44.189426,48.995491,65.947449,53.178570,4.653247,15.178144
136,0,-150.200027,116.215134,46.292839,-10.221014,77.570297,71.979828,44.169743,48.998955,65.929337,53.233772,4.689176,15.193508
137,0,-150.198059,116.229370,46.269596,-10.243037,77.584679,71.962601,44.147095,48.999752,65.911751,53.188320,4.644069,15.199002
138,0,-150.191315,116.199448,46.231342,-10.251581,77.602608,71.950760,44.156677,48.998306,65.929100,53.151520,4.665545,15.200189
139,0,-150.200409,116.203079,46.233051,-10.230400,77.592613,71.930809,44.136654,49.036850,65.922394,53.211182,4.701879,15.212682
140,0,-150.196152,116.199921,46.222202,-10.256027,77.599823,71.910545,44.151516,49.040222,65.923119,53.233219,4.688356,15.199714
141,0,-150.213654,116.164574,46.231190,-10.237585,77.627480,71.886871,44.155720,49.062641,65.877434,53.234848,4.690293,15.186765
142,0,-150.165802,116.126343,46.206451,-10.237289,77.614159,71.857147,44.187687,49.051968,65.857407,53.249699,4.701505,15.135641
143,0,-150.160065,116.144836,46.176094,-10.231485,77.621384,71.875954,44.191090,49.050018,65.845436,53.234634,4.658496,15.171214
144,0,-150.147034,116.155922,46.175964,-10.236243,77.614883,71.864441,44.237469,49.037910,65.868393,53.280682,4.695369,15.127413
145,0,-150.170715,116.183624,46.143715,-10.212772,77.605324,71.845161,44.226894,49.030247,65.856201,53.284985,4.666383,15.178123
146,0,-150.132019,116.145508,46.123486,-10.151202,77.606972,71.804420,44.249550,49.023945,65.855522,53.267982,4.635254,15.152310
147,0,-150.052795,116.107063,46.102112,-10.197854,77.581779,71.783493,44.213051,49.015682,65.846024,53.274975,4.620256,15.137041
148,0,-150.058380,116.113853,46.076847,-10.208944,77.616646,71.729065,44.201946,49.016857,65.842506,53.287582,4.602056,15.133967
149,0,-150.038437,116.128502,46.026787,-10.209605,77.625908,71.715660,44.212067,49.035492,65.843842,53.279285,4.608433,15.153350
150,0,-150.056305,116.183060,45.979347,-10.224646,77.676231,71.683815,44.198147,49.058052,65.808395,53.267498,4.591284,15.166672
151,0,-150.023621,116.174835,45.921619,-10.252707,77.722725,71.634682,44.192326,49.108715,65.769989,53.266750,4.634569,15.153606
152,0,-150.062622,116.223267,45.875946,-10.254882,77.771538,71.598320,44.194271,49.145237,65.758003,53.266308,4.669259,15.146247
153,0,-150.064957,116.250175,45.873894,-10.248974,77.833794,71.560959,44.180454,49.212925,65.754402,53.316826,4.752152,15.146609
154,0,-150.103210,116.357971,45.787537,-10.232693,77.917061,71.555641,44.183731,49.298679,65.721085,53.261322,4.728280,15.212447
155,0,-150.026855,116.400658,45.759262,-10.186673,77.948883,71.503174,44.203766,49.343246,65.710922,53.302464,4.789684,15.174783
156,0,-150.004379,116.412636,45.716103,-10.189456,78.014229,71.466698,44.211365,49.374222,65.665344,53.297306,4.763250,15.198750
157,0,-150.010040,116.439781,45.691425,-10.152027,78.023003,71.438202,44.256077,49.433247,65.654205,53.280205,4.806988,15.176579
158,0,-149.980621,116.485931,45.623306,-10.151005,78.055519,71.429535,44.253220,49.437641,65.638039,53.291557,4.776327,15.179882
159,0,-149.937668,116.426918,45.579010,-10.151140,78.073296,71.369278,44.249912,49.427654,65.594833,53.294563,4.766052,15.172077
160,0,-149.934067,116.422432,45.509850,-10.124725,78.071030,71.320953,44.244511,49.423523,65.584785,53.364761,4.773922,15.131796
161,0,-149.917160,116.430779,45.428150,-10.099246,78.082184,71.261246,44.262920,49.426292,65.564003,53.377666,4.756436,15.175581
162,0,-149.862549,116.392181,45.337822,-10.101901,78.070145,71.181335,44.294609,49.442776,65.519875,53.380409,4.754006,15.145542
163,0,-149.850143,116.383110,45.287369,-10.063705,78.051041,71.148224,44.355232,49.423416,65.494469,53.467129,4.735134,15.104921
164,0,-149.769882,116.304916,45.217403,-10.053619,78.043495,71.084030,44.381866,49.439789,65.489609,53.445347,4.713921,15.100868
165,0,-149.762909,116.291412,45.169605,-10.015675,78.047714,71.056473,44.444241,49.424854,65.462234,53.512951,4.719303,15.079583
166,0,-149.782928,116.255676,45.136219,-9.996041,78.032845,71.017128,44.486477,49.439438,65.441032,53.556999,4.737383,15.077994
167,0,-149.760452,116.267319,45.106632,-9.930495,78.038589,71.008286,44.498123,49.440197,65.442413,53.594070,4.706895,15.086963
168,0,-149.713837,116.239151,45.056702,-9.957331,78.014076,70.997719,44.509899,49.428139,65.435806,53.578266,4.701422,15.044903
169,0,-149.712463,116.237480,44.999298,-9.918865,78.030106,70.979301,44.515591,49.428379,65.403641,53.598354,4.663233,15.047993
170,0,-149.716827,116.207520,45.000473,-9.912291,78.041389,70.974442,44.550190,49.421906,65.420067,53.607201,4.660976,15.032949
171,0,-149.713913,116.206070,44.954342,-9.894410,78.030945,70.979393,44.533310,49.430721,65.399330,53.622337,4.651232,15.049548
172,0,-149.726868,116.228477,44.957603,-9.934090,78.057304,70.919777,44.518970,49.455868,65.378448,53.617985,4.697455,15.020443
173,0,-149.733658,116.230057,44.957932,-10.044523,78.032082,70.849869,44.493202,49.461784,65.373741,53.605537,4.699802,15.045538
174,0,-149.757889,116.260468,44.898544,-10.051139,78.064362,70.832603,44.509682,49.506947,65.363541,53.582520,4.726684,15.020790
175,0,-149.803787,116.360741,44.899723,-10.050591,78.116035,70.814651,44.473515,49.568584,65.340042,53.567966,4.770529,15.056057
176,0,-149.832855,116.400368,44.876503,-10.058279,78.147064,70.803734,44.434509,49.585094,65.352135,53.593884,4.805082,15.028165
177,0,-149.817673,116.410622,44.860226,-10.051630,78.173157,70.789330,44.473885,49.606987,65.337341,53.604050,4.814422,15.014647
178,0,-149.802841,116.453506,44.826485,-10.040459,78.248817,70.803589,44.429699,49.631073,65.341789,53.593891,4.833309,15.037909
179,0,-149.786346,116.494034,44.757225,-10.046235,78.281403,70.778778,44.441799,49.654736,65.331779,53.571117,4.826098,15.053926
180,0,-149.837128,116.556946,44.785770,-10.066636,78.297646,70.740540,44.395683,49.692024,65.336563,53.583584,4.863094,15.050131
181,0,-149.809113,116.618614,44.706615,-9.996436,78.367508,70.770828,44.437469,49.719711,65.336067,53.597126,4.917362,15.049401
182,0,-149.815109,116.665718,44.653301,-10.055587,78.388885,70.698402,44.420696,49.749989,65.289391,53.602287,4.932816,15.049148
183,0,-149.769913,116.695724,44.556782,-9.980208,78.452629,70.686249,44.459171,49.759537,65.289154,53.615662,4.914771,15.044975
184,0,-149.735275,116.730515,44.532089,-9.966261,78.469734,70.667793,44.532391,49.815235,65.270187,53.633366,4.935001,15.047112
185,0,-149.706573,116.775764,44.503124,-9.909482,78.502594,70.646461,44.576233,49.835842,65.268433,53.669506,4.960708,15.044009
186,0,-149.566696,116.738304,44.454166,-9.816026,78.543182,70.648140,44.599667,49.854164,65.238609,53.698238,4.971299,15.040233
187,0,-149.536697,116.740364,44.417843,-9.788419,78.503334,70.611099,44.690434,49.822945,65.229904,53.757862,4.911079,14.987160
188,0,-149.413956,116.718681,44.434853,-9.637475,78.512764,70.650276,44.783913,49.817951,65.188301,53.764393,4.903258,14.979854
189,0,-149.312195,116.657295,44.411739,-9.539124,78.455208,70.659584,44.860283,49.732445,65.215385,53.820499,4.885952,14.944369
190,0,-149.278488,116.663071,44.478558,-9.504874,78.404861,70.643776,44.911488,49.673176,65.189438,53.850609,4.823824,14.915352
191,0,-149.214371,116.654533,44.465660,-9.396812,78.356270,70.708542,44.980289,49.578079,65.180573,53.878777,4.815212,14.871758
192,0,-149.204437,116.622513,44.527969,-9.422483,78.257408,70.696396,45.029953,49.529774,65.198074,53.974686,4.768518,14.841361
193,0,-149.123093,116.675377,44.586639,-9.308077,78.223099,70.731537,45.076950,49.462009,65.205704,53.993870,4.702924,14.851470
194,0,-149.051315,116.617943,44.622341,-9.224307,78.175667,70.783043,45.165287,49.386982,65.231804,54.025436,4.644942,14.826537
195,0,-149.014587,116.665855,44.662682,-9.133677,78.174240,70.830818,45.205196,49.346958,65.225296,54.002655,4.664407,14.793961
196,0,-148.970810,116.662941,44.682266,-9.113173,78.150589,70.846611,45.247414,49.329205,65.243729,54.037460,4.616093,14.789205
197,0,-148.960831,116.651329,44.719788,-9.117693,78.141754,70.817474,45.295166,49.311081,65.238457,54.080883,4.593771,14.823198
198,0,-148.889694,116.710854,44.778355,-9.030048,78.134758,70.878708,45.323212,49.312271,65.231361,54.057632,4.602371,14.826634
199,0,-148.876678,116.716377,44.778637,-9.029544,78.134750,70.932655,45.353340,49.307587,65.245903,54.058037,4.600724,14.814209
200,0,-148.869919,116.717766,44.779079,-8.963067,78.141563,70.936134,45.377514,49.293274,65.238449,54.062695,4.606849,14.793821
201,0,-148.846008,116.722206,44.791431,-9.001697,78.169609,70.943298,45.380898,49.298325,65.239777,54.115852,4.601082,14.812333
202,0,-148.855713,116.737946,44.773510,-8.991058,78.159943,70.902687,45.361786,49.299595,65.243980,54.036930,4.584846,14.788739
203,0,-148.952484,116.787117,44.821575,-9.012478,78.174469,70.919136,45.343853,49.306839,65.241394,54.059155,4.603442,14.809548
204,0,-148.953293,116.770798,44.791431,-9.035680,78.158180,70.919662,45.326130,49.319363,65.236832,54.017006,4.571205,14.812090
205,0,-148.926727,116.729866,44.823410,-9.033818,78.167099,70.934807,45.324219,49.309731,65.251541,54.042095,4.558952,14.811013
206,0,-149.030365,116.754211,44.859924,-9.090480,78.170319,70.971992,45.253258,49.314213,65.275291,53.959328,4.564652,14.857747
207,0,-149.068878,116.757980,44.881935,-9.124228,78.171463,70.983009,45.207268,49.318241,65.283524,53.925686,4.605611,14.834504
208,0,-149.132202,116.741814,44.865826,-9.130323,78.137863,70.986893,45.161076,49.305275,65.296417,53.916737,4.618647,14.830002
209,0,-149.173386,116.741867,44.902977,-9.226286,78.153198,71.004791,45.145584,49.321976,65.312637,53.835377,4.606568,14.834782
210,0,-149.168320,116.703148,44.923775,-9.256895,78.118179,71.000870,45.090214,49.304436,65.337852,53.828793,4.608857,14.856573
211,0,-149.253601,116.720673,44.943233,-9.307490,78.082436,71.028229,45.024006,49.290981,65.338150,53.779613,4.608871,14.874541
212,0,-149.283508,116.676392,44.962784,-9.323416,78.045822,71.081787,44.966297,49.252483,65.318253,53.736404,4.600192,14.876214
213,0,-149.304932,116.644257,44.994896,-9.417203,78.016853,71.086952,44.931965,49.198025,65.350075,53.720367,4.572974,14.885995
214,0,-149.360657,116.634033,45.069424,-9.533101,77.929016,71.121765,44.811832,49.134605,65.396980,53.686283,4.555192,14.869209
215,0,-149.365982,116.616966,45.081219,-9.564677,77.871513,71.221359,44.774994,49.102795,65.448013,53.673721,4.565806,14.888898
216,0,-149.430862,116.550705,45.198853,-9.618083,77.811890,71.255592,44.716999,49.030384,65.501488,53.603775,4.531902,14.888415
217,0,-149.482712,116.587234,45.224663,-9.708727,77.758759,71.298439,44.675655,48.977787,65.518433,53.579556,4.523278,14.933066
218,0,-149.573090,116.567146,45.345009,-9.746395,77.700066,71.361771,44.653206,48.942261,65.563042,53.511074,4.516444,14.934011
219,0,-149.594849,116.568138,45.419460,-9.805165,77.675316,71.424149,44.558315,48.925762,65.590683,53.504200,4.506115,14.947242
220,0,-149.616470,116.542290,45.451939,-9.809571,77.659203,71.487068,44.527912,48.906139,65.638519,53.461872,4.502922,14.948149
221,0,-149.698456,116.570518,45.522552,-9.890403,77.666550,71.525482,44.489559,48.884285,65.657959,53.428204,4.499986,14.958207
222,0,-149.668594,116.548477,45.555042,-9.913027,77.654961,71.543297,44.468285,48.873383,65.671135,53.395424,4.498793,14.958623
223,0,-149.691772,116.532021,45.617989,-9.916265,77.631920,71.560844,44.436676,48.883976,65.669777,53.392647,4.503125,14.967221
224,0,-149.740479,116.585358,45.646244,-9.977074,77.679436,71.559319,44.395500,48.896236,65.681374,53.368851,4.529302,15.008531
225,0,-149.800034,116.604881,45.717926,-10.010833,77.663795,71.596909,44.345585,48.880051,65.715683,53.345913,4.583135,15.007710
226,0,-149.794540,116.621651,45.774323,-10.033689,77.674202,71.645073,44.290413,48.918453,65.766716,53.318233,4.576487,15.009772
227,0,-149.854019,116.633911,45.800095,-10.128659,77.675301,71.662315,44.191792,48.913536,65.767235,53.247398,4.605391,15.041416
228,0,-149.932587,116.602486,45.845230,-10.192759,77.679153,71.658264,44.163948,48.905361,65.792221,53.241211,4.612943,15.034239
229,0,-149.998566,116.666069,45.861691,-10.253946,77.716621,71.687996,44.095184,48.944157,65.789803,53.235962,4.656200,15.051107
230,0,-150.036469,116.655708,45.877335,-10.271324,77.729752,71.658592,44.043137,48.973873,65.765045,53.212879,4.669284,15.040127
231,0,-150.081940,116.632324,45.806984,-10.321074,77.729027,71.565048,44.035599,49.017429,65.763718,53.177197,4.653631,15.081638
232,0,-150.142319,116.641258,45.826328,-10.382157,77.746643,71.543823,44.017044,49.060390,65.738815,53.190956,4.707195,15.047398
233,0,-150.127609,116.603653,45.748669,-10.450974,77.769066,71.493919,43.937813,49.095776,65.708206,53.134171,4.700829,15.113791
234,0,-150.172485,116.600822,45.734806,-10.499541,77.769554,71.472656,43.872078,49.124935,65.697716,53.166111,4.699270,15.125254
235,0,-150.253189,116.533371,45.697666,-10.587209,77.784081,71.430290,43.796951,49.132088,65.712738,53.088318,4.678765,15.138482
236,0,-150.336060,116.564919,45.656307,-10.635604,77.781517,71.403717,43.739414,49.151230,65.705826,53.068649,4.709143,15.127485
237,0,-150.366058,116.557037,45.588417,-10.733845,77.813904,71.375931,43.675873,49.180786,65.701126,53.052917,4.738716,15.148466
238,0,-150.387924,116.543777,45.541512,-10.810164,77.822678,71.340332,43.590569,49.220322,65.722885,53.068756,4.752682,15.205957
239,0,-150.471588,116.589294,45.438881,-10.876342,77.873589,71.296181,43.550163,49.264553,65.708893,53.002823,4.749133,15.213617
240,0,-150.525665,116.596436,45.379482,-10.985682,77.923248,71.198334,43.510216,49.323112,65.681732,53.022892,4.805910,15.173629
241,0,-150.502441,116.621567,45.247414,-11.032447,77.957993,71.106674,43.475651,49.391487,65.620613,53.017971,4.800903,15.184919
242,0,-150.558884,116.661163,45.180351,-11.329599,77.898788,70.914108,43.451370,49.467335,65.579613,52.986786,4.830132,15.194549
243,0,-150.481354,116.635612,45.078262,-11.345860,77.990707,70.780441,43.453556,49.550987,65.517235,53.020206,4.869629,15.167579
244,0,-150.472687,116.677811,44.932068,-11.343346,78.067833,70.686729,43.480434,49.656906,65.463120,53.051254,4.926978,15.198269
245,0,-150.459930,116.685089,44.839699,-11.386827,78.151520,70.550278,43.473053,49.742752,65.411140,53.047417,4.965258,15.167301
246,0,-150.431671,116.715668,44.694389,-11.349256,78.219391,70.463486,43.469364,49.842060,65.380852,53.100990,4.983520,15.167371
247,0,-150.424423,116.762276,44.624420,-11.385580,78.300362,70.403580,43.503502,49.926712,65.327484,53.142036,5.015182,15.185753
248,0,-150.371826,116.782722,44.570549,-11.120146,78.449631,70.440163,43.500366,49.972054,65.298096,53.141117,5.045953,15.175578
249,0,-150.416946,116.792679,44.521301,-11.417605,78.392502,70.378586,43.488079,49.980721,65.309799,53.091743,5.072422,15.199310
250,0,-150.438736,116.813057,44.487904,-11.192181,78.505760,70.432823,43.449657,49.999355,65.327507,53.109089,5.081808,15.187521
251,0,-150.411057,116.827118,44.434258,-11.433042,78.378929,70.354698,43.444241,49.997784,65.333443,53.116161,5.086782,15.182923
252,0,-150.468964,116.844559,44.386574,-11.443792,78.335320,70.315353,43.397995,49.987003,65.314400,53.129391,5.064244,15.209889
253,0,-150.455948,116.844131,44.251747,-11.280970,78.483368,70.333755,43.371910,49.990471,65.328209,53.093006,5.075931,15.196061
254,0,-150.446686,116.883934,44.145306,-11.303526,78.491600,70.285225,43.382996,50.000221,65.283882,53.140766,5.072705,15.200384
255,0,-150.501495,116.909187,44.060207,-11.282271,78.531364,70.173607,43.366478,50.068409,65.235764,53.138397,5.070045,15.174957
256,0,-150.524780,116.955101,43.969093,-11.332946,78.615143,70.067062,43.318207,50.167801,65.182999,53.147495,5.138491,15.185846
257,0,-150.452744,116.989456,43.849724,-11.312619,78.717171,69.935753,43.353077,50.271164,65.118095,53.197014,5.130404,15.192739
258,0,-150.375778,117.015732,43.663284,-11.303047,78.835091,69.786064,43.347282,50.391212,65.011139,53.237198,5.172398,15.199986
259,0,-150.352158,117.061600,43.548077,-11.302384,78.938583,69.609009,43.365856,50.523476,64.951340,53.291191,5.269148,15.138610
260,0,-150.314209,117.137894,43.377407,-11.338711,79.045044,69.417435,43.399349,50.667202,64.869034,53.361824,5.331062,15.141546
261,0,-150.233566,117.168060,43.273129,-11.281192,79.138336,69.291092,43.398396,50.755547,64.795929,53.427647,5.367562,15.142101
262,0,-150.178909,117.199257,43.114006,-11.207750,79.207542,69.128685,43.446545,50.853802,64.711784,53.457695,5.387237,15.114986
263,0,-150.153854,117.265884,43.007931,-11.152630,79.252350,68.975029,43.481873,50.898643,64.597961,53.538219,5.403691,15.068681
264,0,-150.108841,117.303085,42.987324,-11.064281,79.296722,68.884315,43.572392,50.918320,64.527191,53.655643,5.396997,14.998654
265,0,-150.004242,117.308640,42.973938,-11.015285,79.251572,68.822121,43.622959,50.936756,64.444969,53.753971,5.386524,14.922694
266,0,-150.003494,117.336021,43.071831,-10.856503,79.252991,68.820770,43.753597,50.913780,64.420898,53.850712,5.393495,14.892598
267,0,-150.035538,117.406792,43.236477,-10.683922,79.235954,68.865044,43.926861,50.907539,64.382011,53.967033,5.309453,14.932796
268,0,-150.003555,117.460579,43.655872,-10.431600,79.163498,69.017593,44.163357,50.908443,64.358757,54.132721,5.229546,14.920824
269,0,-150.075226,117.570267,44.260975,-10.031194,79.003777,69.395462,44.593842,50.903427,64.385735,54.369339,5.190805,14.967382
270,0,-150.216400,117.695595,45.258099,-9.486188,78.833687,70.090157,45.041180,50.880974,64.463341,54.655327,5.114167,15.075529
271,0,-150.434174,117.949860,46.524429,-8.804924,78.588295,71.212410,45.609169,50.737034,64.804527,54.793297,5.044101,15.273334
272,0,-150.924393,118.423126,48.283558,-8.104735,78.382515,72.964493,46.214516,50.523411,65.461166,54.800526,4.865144,15.690626
273,0,-151.502579,118.902275,50.663891,-7.132241,78.305008,75.350914,46.824036,50.205128,66.432106,54.613869,4.445393,16.873875
274,0,-152.000931,119.582855,53.280720,-6.042387,78.445786,78.165855,47.517502,49.927334,68.059135,54.585938,4.095036,18.471516
275,0,-152.327698,120.282066,56.170662,-5.000380,78.951660,81.600815,48.065475,49.740108,70.480568,54.842907,3.429374,21.490814
276,0,-152.427917,121.074081,59.390518,-4.138438,79.781662,85.625015,48.629044,49.884060,74.353241,56.207428,2.333219,26.417753
277,0,-152.240952,122.039650,62.892094,-3.006837,80.669220,90.612259,49.336723,50.422661,79.386452,57.627956,2.145896,32.635029
278,0,-151.647064,123.025581,66.541656,-2.315849,81.558022,95.926529,50.170906,51.184097,85.781197,60.102314,2.209977,40.179058
279,0,-150.744385,124.278809,70.561043,-1.199427,82.883629,102.381096,51.092392,52.155716,93.205215,62.930874,2.690970,48.731228
280,0,-149.639847,125.618324,75.021149,-0.068819,84.149864,109.209419,52.357964,53.432011,101.463570,66.047432,3.648374,57.970127
281,0,-148.005142,126.884552,79.739845,1.468927,85.682739,116.885567,53.852703,55.016521,110.113365,69.983620,5.390991,67.390396
282,0,-146.131805,128.113480,84.876099,3.058369,87.330276,124.291687,55.761497,57.066750,118.882019,73.687477,7.191491,77.159370
283,0,-143.432602,129.761642,90.183365,5.829170,89.693077,132.270187,58.447708,59.455376,127.596375,78.421761,9.916230,86.696465
284,0,-140.646362,131.687561,95.663498,8.814371,92.266075,140.120682,61.519592,62.317570,136.196869,83.425285,13.058710,96.092216
285,0,-137.101852,134.794708,101.174278,12.276949,95.124741,148.035065,65.277443,65.699837,144.591949,89.018715,16.881578,105.274345
286,0,-133.104065,136.158691,106.531807,16.135855,98.218086,155.817169,69.470940,69.496849,152.910294,95.114891,20.848005,114.451508
287,0,-128.527481,137.860474,111.834961,20.544588,101.598785,163.406143,74.105049,73.648010,161.091644,101.538681,25.856863,123.143921
288,0,-123.683342,140.491501,117.388863,25.256565,105.524498,170.843445,79.186920,78.074783,169.029877,108.435066,30.781401,131.894028
289,0,-117.874176,142.354752,122.146034,30.434361,109.326454,177.471512,84.755615,82.702568,176.688828,115.671692,35.974773,140.263596
290,0,-112.113083,145.358719,127.105476,36.167694,113.219978,183.703140,90.637268,87.430450,183.816055,123.149162,41.263451,148.083954
291,0,-105.516159,147.717117,131.480850,42.206139,117.209991,189.226105,96.978920,92.191505,190.254166,130.940582,46.503334,155.088562
292,0,-98.728882,150.578995,135.894135,48.634499,121.190376,194.053925,103.871498,97.001289,195.871094,138.996292,51.961098,160.956223
293,0,-91.094856,152.967484,139.606155,56.230568,125.105843,197.900879,111.236092,101.791855,200.559555,147.345047,57.518570,165.562317
294,0,-83.400566,155.633179,143.264908,64.000977,128.865814,201.147430,119.165367,106.625114,204.195541,156.060516,63.288925,168.764053
295,0,-75.492851,158.362061,146.741943,72.009491,132.665222,203.522644,127.554359,111.528282,206.686432,165.172455,69.256401,170.590866
296,0,-67.209679,160.737122,149.824417,80.196541,136.211563,205.283173,136.405777,116.435730,208.185242,174.594437,75.508919,171.022934
297,0,-59.306122,163.231781,152.745422,88.867256,139.545288,206.430481,145.474838,121.269768,208.633423,184.112015,81.729874,170.289719
298,0,-51.274052,165.443390,155.203003,97.509071,142.701126,206.904282,154.672440,125.964508,208.252502,193.502380,87.747360,168.705246
299,0,-43.340649,167.654114,157.213699,106.296684,145.830994,206.778732,163.677536,130.378342,207.127075,202.634399,93.471176,166.330994
300,0,-35.385857,169.924973,158.795868,114.900032,148.975983,206.079239,172.614471,134.531143,205.466232,211.432556,98.804863,163.453720
301,0,-27.689960,172.285858,160.251312,123.506210,151.912842,204.890640,181.361557,138.310928,203.325836,219.847260,103.747391,160.082947
302,0,-20.105637,174.599411,161.222015,131.770264,154.763962,203.297745,189.773544,141.890976,200.742126,227.992386,108.296928,156.220474
303,0,-12.526209,176.794815,161.731277,139.909515,157.363907,201.304581,197.878510,145.144958,197.733231,235.474167,112.680923,152.037415
304,0,-5.239559,178.797638,161.833862,147.585770,159.771652,198.996414,205.647232,148.106522,194.403412,242.561264,116.961853,147.369171
305,0,1.692767,180.821915,161.827576,155.108093,161.998306,196.388412,213.066040,150.787613,190.836472,249.331863,120.523743,142.676041
306,0,8.109463,182.771347,161.771378,162.293243,164.058197,193.577408,220.192322,153.156387,186.945816,255.880569,123.700737,137.824677
307,0,14.138470,184.543457,161.366562,169.035385,166.085052,190.695724,226.913223,155.360077,182.907974,261.570007,126.506119,132.779404
308,0,19.838032,186.077866,160.733231,175.349762,167.881897,187.704239,233.175491,157.351288,178.806000,266.825500,129.148453,127.674431
309,0,25.260193,187.350967,159.727386,181.337082,169.608276,184.791351,239.037094,159.231293,174.727707,271.912048,131.539627,122.791565
310,0,30.287254,188.591980,158.656082,186.958771,171.217178,181.905090,244.739212,160.927826,170.755783,276.294739,133.922897,117.978104
311,0,34.986713,189.675613,157.670685,192.160233,172.661423,178.966934,249.838348,162.491165,166.952621,280.561157,136.245224,113.418465
312,0,39.727436,190.726822,156.208023,197.097519,173.899048,176.075195,254.701584,163.854355,163.364319,284.738281,137.988846,109.273079
313,0,44.101063,191.555328,154.997391,201.783813,175.015976,173.301147,259.280182,164.944382,159.938034,288.744629,139.449295,105.283340
314,0,48.386791,192.406235,153.486069,206.368423,175.993484,170.538483,263.686371,165.885391,156.593430,292.615173,140.676498,101.540176
315,0,52.559147,193.121735,151.933624,210.716599,176.941559,167.737396,268.024872,166.716949,153.282486,295.922211,141.472122,97.955009
316,0,56.690571,193.807587,150.303207,214.926346,177.854294,164.995911,272.275269,167.491959,150.022339,299.552704,142.601074,94.191833
317,0,60.546925,194.426117,148.824478,219.097916,178.595108,162.205933,276.424225,168.245529,146.778809,303.069000,143.789886,90.362999
318,0,64.305542,194.960739,147.300461,223.280685,179.237305,159.699509,280.342682,169.254501,143.557053,306.397247,144.980469,86.767082
319,0,67.603897,195.278870,145.907822,226.926697,179.573486,157.155106,284.022217,170.048553,140.339264,309.571716,146.294022,83.108910
320,0,70.689697,195.587326,144.545883,230.493988,179.834457,154.648392,287.489197,170.689651,137.175735,312.579346,147.604279,79.461494
321,0,74.073677,195.621429,143.182587,233.989044,179.987869,152.183289,290.868652,171.208023,134.178696,315.401001,148.712296,75.946442
322,0,76.757385,195.833588,141.856873,237.256638,180.167374,149.890137,294.057312,171.560867,131.364746,318.191376,149.546387,72.818527
323,0,79.547333,195.966110,140.592636,240.407181,180.382935,147.724075,297.078674,171.847076,128.744797,320.864868,150.080963,70.147911
324,0,82.685753,195.930008,139.461090,243.360382,180.624420,145.680389,299.853790,172.160507,126.249474,323.177979,150.607605,67.272591
325,0,85.479210,196.135818,138.217270,246.379059,180.822449,143.707809,302.643311,172.433609,123.908707,325.541412,150.970291,64.711212
326,0,88.094917,196.363190,137.093384,249.239075,181.069672,141.717712,305.361511,172.684464,121.639404,327.795227,151.410767,62.162209
327,0,90.560150,196.564713,135.972687,251.840561,181.326126,139.752304,307.862793,173.003632,119.300949,329.924164,151.884979,59.644939
328,0,92.915886,196.740677,134.921921,254.387466,181.374573,137.875732,310.169617,173.255020,117.007202,331.949890,152.355255,57.172356
329,0,95.096291,196.724854,133.909409,256.753754,181.200928,136.039673,312.477570,173.362595,114.699661,333.704224,152.815628,54.572361
330,0,97.034859,196.773972,132.945999,259.105896,181.146927,134.338196,314.628235,173.268005,112.411469,335.351044,152.978180,52.030342
331,0,99.151703,196.804840,132.106232,261.341736,180.869888,132.523300,316.636719,173.101547,110.038719,336.645416,153.140686,49.335419
332,0,100.936310,196.914062,131.200241,263.548462,180.992279,130.916168,318.543457,173.028137,107.744675,337.828003,153.191620,46.813900
333,0,102.887093,197.030884,130.311646,265.661804,181.145386,129.474655,320.376862,173.271698,105.481758,338.894562,153.438416,44.321758
334,0,104.565437,197.267349,129.437408,267.571808,181.372086,128.141357,322.048553,173.648941,103.421768,339.858337,153.728256,42.122112
335,0,106.158348,197.467209,128.505569,269.226837,181.679199,126.994743,323.588715,174.108292,101.614456,340.682495,153.956650,40.249355
336,0,107.627182,197.673584,127.621826,270.839325,181.905182,125.930908,324.917450,174.408936,100.172646,341.527618,154.185089,38.647728
337,0,108.805626,197.768875,126.664413,272.141815,181.932983,124.917183,326.188812,174.477692,98.917763,342.368164,154.194855,37.284660
338,0,109.967079,197.871735,125.722305,273.266052,181.803848,123.960571,327.227875,174.352585,97.702339,342.903931,153.982193,35.942833
339,0,111.109413,197.854401,124.813881,274.423920,181.629364,123.001495,328.170593,174.026947,96.383316,343.188782,153.597504,34.541389
340,0,112.126976,197.829681,123.977745,275.407410,181.315979,121.986282,329.034607,173.610947,94.966469,343.029480,153.273514,32.769737
341,0,112.923782,197.802933,123.131233,276.339569,180.918259,120.906090,329.771332,173.298584,93.141090,342.496765,153.008408,30.655405
342,0,113.741676,197.690475,122.176842,277.229462,180.486191,119.619049,330.209808,172.945328,91.065735,341.483887,152.783661,28.179476
343,0,114.492508,197.598236,121.217018,278.118591,180.064011,118.259460,330.820007,172.458237,88.815155,340.399353,152.552902,25.576355
344,0,114.954277,197.511932,120.262009,278.814697,179.652649,116.814133,331.057587,171.997604,86.442558,339.227661,152.291367,22.801960
345,0,115.399986,197.461288,119.223343,279.591034,179.293396,115.215057,331.360748,171.647537,83.934647,338.150482,152.062134,20.216856
346,0,116.001846,197.442108,118.134880,280.100769,179.102066,113.466423,331.647888,171.401367,81.352013,337.159302,151.999207,17.423342
347,0,116.466225,197.451752,116.917847,280.646637,179.183060,111.783768,331.980347,171.445053,79.533485,337.121582,151.825882,15.532512
348,0,116.871040,197.542999,115.667976,280.848541,179.315521,110.223190,332.299072,171.811676,78.175041,337.557007,151.919342,14.224032
349,0,117.235306,197.695847,114.309837,280.958527,179.401154,108.842232,332.395294,172.157608,76.636925,337.438690,151.901947,12.810470
350,0,117.400574,197.853851,112.914429,281.015778,179.498444,107.641754,332.423279,172.402939,75.539047,337.333954,151.799362,11.774281
351,0,117.491768,197.980545,111.487785,280.784546,179.849014,106.740021,332.404572,172.652054,74.972542,337.101166,151.419464,11.279525
352,0,117.540657,198.203064,110.247673,280.418762,180.251968,106.194817,332.291046,172.787949,74.796043,337.003296,151.008926,11.265739
353,0,117.485306,198.482407,109.169601,280.137085,180.577209,105.785568,332.202026,172.850311,74.648186,336.839996,150.558334,11.242560
354,0,117.560989,198.892715,108.228340,280.029816,180.727432,105.525444,332.157440,172.643021,74.439583,336.781555,150.209274,11.163768
355,0,117.723976,199.284744,107.314720,280.040314,181.041351,105.214394,332.247681,172.720779,74.214355,336.787140,150.013672,11.021282
356,0,118.357491,199.758743,106.537682,280.124176,181.518616,104.878128,332.499817,172.951233,73.976593,336.714203,149.680298,10.920778
357,0,119.092270,200.180908,105.822403,280.312866,181.943970,104.606209,332.769867,172.875015,73.784920,336.730225,149.389572,10.849437
358,0,119.765038,200.693542,105.347137,280.645050,182.415192,104.493652,333.008148,172.883194,73.664246,336.906525,149.031738,11.130198
359,0,120.475304,201.191513,105.026382,280.955627,182.857193,104.508904,333.300964,173.159744,73.708168,337.420715,149.308304,11.070931
360,0,120.923737,201.564835,104.969551,281.216553,183.307053,104.797318,333.556976,173.516525,73.967880,338.061523,149.647827,11.385281
361,0,121.166962,201.837631,105.172676,281.451172,183.677948,105.227486,333.788818,173.930008,74.325363,338.773346,150.045715,11.875252
362,0,121.205811,202.023148,105.517159,281.611145,184.006500,105.974312,333.853271,174.328552,75.010612,339.144196,150.177765,12.727993
363,0,121.109161,202.181229,106.015823,281.368561,184.141846,106.993950,333.763641,174.420944,76.126549,339.357544,150.366882,13.925317
364,0,120.878624,202.277634,106.750366,280.912872,184.414948,108.351509,333.445862,174.543381,77.717178,339.376038,150.321014,15.689384
365,0,120.365295,202.390915,107.623505,280.233459,184.693909,110.213570,332.880005,174.711121,79.779396,338.942780,150.046738,17.894281
366,0,119.379623,202.467743,108.673569,279.080566,184.802200,112.395531,331.889160,174.519760,82.376862,338.385040,149.351974,20.770748
367,0,118.054840,202.517899,109.961655,277.520081,184.741852,114.847481,330.633270,174.017654,85.506973,337.258484,148.523544,23.964453
368,0,116.429085,202.509048,111.467415,275.681519,184.423767,117.765785,329.012665,173.321640,89.017586,335.927216,147.483597,27.642241
369,0,114.428719,202.441330,113.118111,273.545593,184.015427,120.853058,327.081268,172.530243,92.639763,334.317566,146.474289,31.335245
370,0,112.070213,202.301865,114.923080,271.102905,183.382874,124.106590,324.773254,171.638443,96.421539,332.364319,145.521576,35.103626
371,0,109.475304,202.050293,116.909683,268.510834,182.606323,127.462906,322.190796,170.727631,100.024452,329.952026,144.495056,38.881538
372,0,106.771019,201.786606,119.017296,265.368958,181.976700,131.189957,319.146698,169.656113,103.492676,327.014587,143.469879,42.429607
373,0,103.326454,201.501297,121.121910,261.996002,181.291504,134.651672,315.800964,168.631409,107.107391,323.643463,142.530365,46.025257
374,0,99.678474,201.172119,123.271713,258.196106,180.599976,138.226395,312.037292,167.772400,110.838173,320.078857,141.705383,49.810547
375,0,95.385651,200.935760,125.163872,253.961563,180.078979,141.769562,307.885284,167.060318,114.693108,316.142639,140.920883,53.628334
376,0,90.445694,201.010040,126.998917,249.194412,179.563400,145.300644,303.262054,166.228134,118.562424,311.794861,139.838181,57.745171
377,0,85.752106,200.860474,128.789810,244.047195,179.087784,148.768845,298.235962,165.354187,122.454178,307.051971,138.791245,61.763123
378,0,80.258606,200.995605,130.450363,238.507507,178.381241,152.138565,292.838928,164.342468,126.481216,301.936493,137.810165,65.555176
379,0,74.479988,201.192184,131.988403,232.655838,177.706924,155.273422,287.080688,163.394562,130.106354,296.521210,136.767715,69.121529
380,0,68.451050,201.393112,133.339432,226.467438,177.167007,158.182526,280.697021,162.771240,133.611908,290.427612,135.989639,72.390549
381,0,62.012234,201.650330,134.432159,220.048630,176.831757,160.886398,274.184601,162.170380,136.613846,284.212555,135.366302,75.301857
382,0,55.387638,201.792419,135.339706,213.355392,176.758804,163.240051,267.669220,161.905182,139.253372,277.669464,135.041718,77.936707
383,0,48.492157,201.990738,136.031754,206.596252,176.805420,165.265625,260.935852,161.837082,141.588531,270.832825,134.764786,80.473419
384,0,41.538185,202.367935,136.491867,199.822983,177.014359,166.899490,254.104233,161.911194,143.449356,263.826019,134.801270,82.297791
385,0,34.457500,202.937393,136.779617,193.046234,177.118713,168.223877,247.405991,161.961502,144.972290,257.043976,135.170654,83.545235
386,0,27.660610,203.554871,136.729065,186.355759,177.238663,169.192429,240.605408,161.944397,145.954559,250.107025,135.682632,84.284401
387,0,20.819782,204.143585,136.689774,179.693283,177.164322,169.891663,233.890472,161.901398,146.602478,243.080154,135.835159,84.805130
388,0,14.158484,204.743378,136.466064,172.684341,178.024109,169.924774,227.032974,162.121979,146.611481,236.260132,136.504257,84.641068
389,0,7.330900,205.569397,136.205872,166.166412,178.530762,169.775894,220.460541,162.506195,146.409637,229.577774,137.041153,84.266396
390,0,0.798973,206.407181,135.667236,159.799393,179.340057,169.278885,214.023773,163.035782,145.846359,222.754333,137.367264,83.802834
391,0,-5.597203,207.311874,135.004425,153.753662,180.218307,168.624023,207.823120,163.745956,144.822113,216.384995,138.415894,82.590454
392,0,-11.715151,208.312927,134.274582,147.923462,181.205475,167.652893,201.799850,164.699463,143.569275,210.144211,139.510162,81.193428
393,0,-17.631407,209.375122,133.539597,142.352524,182.274124,166.545334,196.240936,165.995926,142.095383,204.196655,140.883255,79.607643
394,0,-23.186769,210.422836,132.662003,137.026794,183.436096,165.267807,190.771454,167.394241,140.423248,198.498932,142.666000,77.876015
395,0,-28.743694,211.448547,131.877762,131.831024,184.630814,163.815857,185.629623,168.844620,138.710281,193.047791,144.302383,76.090553
396,0,-33.895744,212.416794,131.059250,126.947838,185.878433,162.389893,180.597702,170.242279,136.864258,187.776733,145.932968,74.137131
397,0,-38.674438,213.236816,130.072418,122.324791,187.155258,160.956024,175.791611,171.729935,135.070312,182.531067,147.395905,72.330368
398,0,-43.625736,214.290176,129.448410,117.799110,188.479370,159.552704,171.165710,173.318253,133.284012,177.529465,149.263611,70.495132
399,0,-48.158699,215.390366,128.764969,113.437401,189.819748,158.284805,166.737503,174.927124,131.676132,172.743607,151.096375,68.797401
400,0,-52.511612,216.037628,127.955391,109.162491,191.108063,157.222824,162.435181,176.479019,130.360443,168.246796,152.953140,67.218285
401,0,-56.892792,216.878601,127.350807,104.975121,192.410233,156.304245,158.291077,177.897552,129.228104,163.847809,154.178146,66.143448
402,0,-61.166542,217.724350,126.805481,101.037750,193.557953,155.457428,154.128815,179.186081,128.178802,159.575241,155.264648,65.161690
403,0,-65.181915,218.439133,126.384407,97.123795,194.599640,154.749924,150.157867,180.246689,127.338249,155.283859,155.880325,64.572372
404,0,-69.046799,218.998322,125.967758,93.405624,195.488403,154.150467,146.410385,181.098297,126.571236,151.428619,156.665970,63.677193
405,0,-72.601112,219.452484,125.523392,90.002731,196.295898,153.547394,142.948486,181.889206,125.773636,147.723953,157.296448,62.869957
406,0,-75.793282,219.776093,125.180305,86.964638,196.989578,152.893982,139.764969,182.599548,124.997948,144.459930,157.873657,62.181362
407,0,-78.602493,220.057617,124.736259,84.205849,197.588989,152.154282,136.870590,183.283798,124.094582,141.251205,158.246841,61.471828
408,0,-81.150681,220.188599,124.350319,81.586349,198.131195,151.320862,134.355331,183.850952,123.176735,138.718674,158.773743,60.464336
409,0,-83.271103,220.293655,123.891472,79.473511,198.425522,150.345947,132.017181,184.197586,122.031822,136.149933,158.867630,59.537937
410,0,-85.109001,220.296555,123.363770,77.455757,198.530075,149.196121,130.134521,184.350967,120.622932,133.884430,159.077591,58.125832
411,0,-87.164101,220.758774,123.003700,75.864861,198.433716,147.950211,128.259689,184.375412,119.040321,131.835007,159.406830,56.323139
412,0,-88.569824,220.237152,122.536613,74.354202,198.238159,146.599686,126.653793,184.374969,117.354874,129.767517,159.358459,54.675907
413,0,-90.038261,220.051758,121.990578,73.074135,197.960098,145.203766,125.128166,184.257095,115.548798,127.877144,159.347473,52.838871
414,0,-91.275581,219.719162,121.442085,71.890038,197.662704,143.864624,123.894745,184.060760,113.827065,126.298012,159.512787,50.891884
415,0,-92.520271,219.504822,120.860710,70.813095,197.378235,142.601425,122.535637,183.881729,112.198341,124.557335,159.386063,49.183746
416,0,-93.504326,219.155823,120.253273,69.798187,197.029861,141.453476,121.406769,183.548798,110.841934,123.091057,158.846603,48.040417
417,0,-94.617538,218.964966,119.609856,68.752426,196.679550,140.398880,120.324913,183.122910,109.629684,121.640099,158.438950,46.788795
418,0,-96.146271,219.290314,118.942520,67.803383,196.286880,139.376755,119.343575,182.631058,108.598305,120.670967,158.145172,45.580807
419,0,-96.460709,218.679733,118.348114,67.145378,195.995575,138.500092,118.561409,182.140808,107.604324,119.824730,157.608047,44.694118
420,0,-96.900162,218.466431,117.662689,66.572418,195.692871,137.543488,118.011070,181.835358,106.702782,119.171661,157.086426,43.772095
421,0,-97.304497,218.300583,117.053009,66.206085,195.455017,136.678787,117.894745,181.388229,105.996353,118.742874,156.693619,42.886097
422,0,-97.553558,218.093689,116.551216,66.169106,195.110397,135.821182,117.561813,181.298187,104.771889,118.598732,156.359879,41.891468
423,0,-97.437050,217.829559,116.017044,66.151436,194.732834,134.799072,117.547966,180.956680,103.629623,118.473770,156.094193,40.693584
424,0,-97.285606,217.562088,115.541878,66.330322,194.268372,133.779236,117.541313,180.544876,102.443642,118.440849,155.793777,39.527245
425,0,-97.161652,217.205811,115.071625,66.652298,193.721252,132.795227,117.698151,180.080093,101.271332,118.275841,155.297348,38.465744
426,0,-96.962227,216.788422,114.558395,66.755562,193.137329,131.838516,117.637756,179.568863,100.013687,118.280914,155.141571,37.068348
427,0,-96.892609,216.430603,114.078697,66.923180,192.642044,130.877640,117.758286,179.096649,98.857201,118.066864,154.884171,35.718582
428,0,-96.736282,216.097870,113.533386,67.120300,192.186676,129.867508,117.846306,178.659958,97.674034,117.787537,154.392471,34.675877
429,0,-96.616562,215.809555,113.046318,67.251663,191.721771,128.906967,117.845718,178.280258,96.411201,117.734192,154.375900,33.159897
430,0,-96.553795,215.527573,112.476547,67.535995,191.318970,127.862167,117.930695,177.936691,95.137527,117.245712,153.967361,32.005074
431,0,-96.471954,215.305313,111.891907,67.572960,190.991394,126.695992,117.922356,177.637650,93.778702,116.982727,153.955399,30.364723
432,0,-96.408867,215.189819,111.278770,67.759033,190.736343,125.563499,117.810799,177.343445,92.327744,116.504601,153.539444,29.131866
433,0,-96.362335,215.097015,110.706390,67.891777,190.653824,124.318329,117.706963,177.203476,90.653336,116.008774,153.628860,27.266184
434,0,-96.349342,215.159882,110.111160,68.074753,190.640808,122.949127,117.756989,177.243484,88.878212,115.432396,153.785019,25.474300
435,0,-96.317932,215.223724,109.417160,68.164650,190.754379,121.407776,117.657150,177.451675,86.948555,114.802589,154.095551,23.529392
436,0,-96.264046,215.287338,108.707672,68.476952,190.843811,119.931656,117.659401,177.695908,85.062180,114.271988,154.567413,21.533131
437,0,-96.243347,215.429352,107.914642,68.738632,191.012512,118.302063,117.645332,178.009399,83.164589,113.863449,154.884689,19.810944
438,0,-96.230339,215.535919,107.101486,68.791687,191.266525,116.766296,117.615959,178.395447,81.297859,113.569023,155.672653,17.660742
439,0,-96.206535,215.697464,106.297188,68.921875,191.587601,115.230934,117.440903,178.822586,79.324883,112.936462,155.910843,15.941804
440,0,-96.277107,215.757309,105.513847,68.868698,191.896042,113.538940,117.153641,179.223587,77.190872,111.986649,156.359955,13.818630
441,0,-96.492447,215.770401,104.767639,68.701889,192.255875,111.791695,116.397827,179.646942,74.695450,110.672470,156.567795,11.719214
442,0,-96.852982,215.958633,104.178802,68.461723,192.673172,110.149086,115.739006,179.898712,72.336090,109.163368,156.902130,9.231601
443,0,-97.366173,216.204086,103.522682,68.350410,193.079605,108.654015,115.141335,179.897491,70.091179,107.425652,156.926636,7.137911
444,0,-97.797691,216.456558,102.842651,68.049728,193.519211,107.317413,114.644890,180.249817,68.477058,106.693741,156.805923,5.999197
445,0,-98.419243,216.795807,102.200592,67.465515,194.141312,106.637962,114.182495,180.779022,68.166611,106.626938,156.478363,5.996972
446,0,-99.289864,217.395767,101.647636,66.839981,194.657684,106.437637,113.179260,181.565765,68.266960,106.503006,156.473785,5.988211
447,0,-100.126122,217.921265,100.737503,66.214455,195.045410,106.289444,112.540268,181.636124,68.336632,106.371361,156.461105,6.001642
448,0,-100.881844,218.319733,100.611946,65.641098,195.531219,106.200737,112.031372,181.939850,68.400856,106.316940,156.577377,6.043208
449,0,-101.330208,218.592499,100.288040,65.243011,195.999176,106.177345,111.563522,182.431091,68.360977,106.346146,156.686371,6.182291
450,0,-101.593712,218.878281,99.803551,64.870674,196.446121,106.248940,111.176102,182.678543,68.391945,106.375443,156.677078,6.235346
451,0,-101.877968,219.158524,99.819260,64.718727,196.736298,106.281982,110.846420,182.749725,68.386650,106.396072,156.722137,6.236464
452,0,-102.018494,219.423401,99.687027,64.618233,197.054871,106.328491,110.575195,182.992371,68.260170,106.528084,156.635620,6.248206
453,0,-102.067360,219.611435,99.665031,64.672783,197.318390,106.223274,110.161270,182.835266,67.653549,106.613144,156.519058,5.881799
454,0,-102.047470,219.814468,99.628380,64.828598,197.565811,106.286919,110.103447,182.855713,67.655708,106.746170,156.466553,5.865440
455,0,-101.833458,219.894165,99.492088,65.007607,197.882767,106.541313,110.031113,183.200928,67.587646,106.896439,156.570328,5.919411
456,0,-101.753349,220.038742,99.557365,65.171700,198.163803,106.919479,109.951576,183.417450,67.657944,107.148178,156.758560,6.038685
457,0,-101.653221,220.008438,99.789291,65.161247,198.369308,107.492676,109.834312,183.672394,67.828262,107.597321,157.028992,6.420360
458,0,-101.643135,219.869537,100.019783,65.073212,198.445236,108.241394,109.654518,183.957016,68.155731,108.339714,157.381912,6.953433
459,0,-101.816391,219.630554,100.367577,65.075348,198.347946,109.082504,109.401367,184.337372,68.614563,109.392776,157.691025,7.840857
460,0,-102.018013,219.257904,100.743874,65.037529,198.082031,110.107880,109.161911,184.491089,69.384499,111.107803,158.478165,8.593008
461,0,-102.429153,218.975021,101.435478,64.876343,197.732300,111.247025,109.333626,184.512054,70.742020,113.857468,159.233032,10.364714
462,0,-102.627213,218.425385,101.896530,64.712952,197.257004,112.508820,109.567039,184.845734,72.518929,116.973366,159.914505,12.748769
463,0,-102.906548,217.667450,102.504951,64.207123,196.731461,113.976875,109.942253,184.962402,74.721718,120.316505,160.340729,15.686117
464,0,-103.273064,216.776138,103.149590,63.742378,195.919708,115.661530,110.046761,184.890564,77.167809,123.416595,160.564316,18.960213
465,0,-103.781059,215.795929,103.865707,63.173832,194.813217,117.525414,110.008743,184.443008,79.814690,126.018051,160.354858,22.556351
466,0,-104.325470,214.751541,104.427742,62.338390,193.500122,119.488052,109.904816,183.564651,82.554543,128.080643,159.363022,26.135403
467,0,-104.883011,213.591995,105.371330,61.562447,191.927460,121.589943,109.425766,182.348816,85.354836,129.472870,158.488266,29.612967
468,0,-105.604828,212.349716,106.250610,60.535957,190.301605,123.810928,109.009270,180.829758,88.244545,130.594360,157.452438,32.914593
469,0,-106.597908,211.220581,107.510658,59.574753,188.435577,126.229019,108.385605,179.204346,91.243324,130.923462,156.253311,36.130943
470,0,-107.514160,209.729721,108.694664,58.383083,186.511444,128.861908,107.734535,177.419220,94.508263,130.864731,154.944641,39.390285
471,0,-108.438240,208.153076,109.752205,57.183777,184.478775,131.641846,107.068169,175.524643,98.007004,130.141479,153.434982,42.662521
472,0,-109.337143,206.483322,110.962105,55.735241,182.273666,134.512726,106.243340,173.601013,101.761314,129.799744,151.809906,46.231358
473,0,-110.472366,204.810608,112.145927,54.220215,180.007980,137.394089,105.379425,171.341660,105.780487,129.385132,149.887756,50.015465
474,0,-111.190422,202.742859,113.307442,52.679535,177.675232,140.415726,104.375320,168.918060,109.982368,128.787460,147.636642,53.957474
475,0,-112.432739,201.101059,114.567184,51.036526,175.171326,143.374863,103.348434,166.210541,114.342545,128.076004,145.096191,57.936794
476,0,-113.522919,199.241272,115.700768,49.322464,172.507797,146.352722,102.117661,163.381561,118.557106,127.090675,142.268341,61.865398
477,0,-114.710831,197.396011,116.780594,47.346992,169.675125,149.162476,100.809746,160.278564,122.659126,125.796555,139.107132,65.668144
478,0,-116.290291,195.665649,117.651367,45.505669,166.496704,151.934158,99.256920,156.933701,126.487701,124.543091,135.715134,69.391342
479,0,-117.189186,193.120132,118.595284,43.319084,163.020966,154.520981,97.702827,153.274475,130.208527,122.957718,132.067642,72.801079
480,0,-118.560181,190.709656,119.105690,40.962379,159.323151,156.783142,95.752846,149.343399,133.577271,121.197510,127.829758,76.047829
481,0,-120.196526,188.256317,119.772339,38.377293,155.547089,158.633163,93.838364,144.916321,136.921570,119.033569,122.867409,79.232941
482,0,-121.482269,185.730225,119.967430,36.041389,151.773422,160.382431,91.627304,140.054520,139.927795,116.621185,117.077545,82.240143
483,0,-122.953362,183.173889,120.119438,33.708019,148.018875,161.915192,89.489571,134.756882,142.729218,113.984528,110.887611,84.994568
484,0,-124.135643,180.676590,120.013641,31.307333,144.378983,163.228302,87.159996,129.434937,145.183350,111.108154,104.591690,87.418350
485,0,-125.359673,178.078598,119.772644,29.228170,140.762726,164.348557,84.808044,124.172485,147.283981,108.346519,98.461533,89.620338
486,0,-126.401794,175.319855,119.347549,26.851000,137.034119,165.062775,82.392120,119.001404,148.826813,105.552017,92.702293,91.389275
487,0,-127.391563,172.967651,118.768585,24.732931,133.267242,165.497238,80.220314,114.323586,150.318756,102.758049,87.180298,92.693871
488,0,-128.332489,169.961517,117.882126,22.712458,129.591782,165.555771,78.144775,109.809013,151.330887,99.574646,81.844490,93.474655
489,0,-129.260620,167.166183,116.953880,20.982786,125.992058,165.252716,76.303726,105.166618,152.012985,95.933243,76.696411,93.486679
490,0,-129.970413,164.232941,115.753555,19.364304,122.700539,164.679398,74.767494,100.528618,152.280136,91.584328,71.673546,92.808983
491,0,-130.466202,161.171783,114.427544,18.133190,119.517143,163.886490,73.055878,96.051201,151.911026,87.407585,67.165215,91.626328
492,0,-131.042938,158.562668,113.163177,17.171164,116.488167,162.676620,71.780739,91.822868,151.061356,83.267052,62.885509,90.261223
493,0,-131.415649,155.938232,111.881371,16.306404,113.393707,161.389053,70.617233,87.932617,149.744110,80.281616,59.006229,88.686333
494,0,-131.868301,153.367050,110.537666,15.416219,110.240128,159.866608,69.691689,84.298767,147.989273,78.118279,55.410378,86.702423
495,0,-132.324921,150.860733,109.229927,14.762198,107.125740,158.129501,68.819328,80.925674,146.163055,76.497711,52.011238,84.832909
496,0,-132.715988,148.318283,107.842690,14.161425,104.032089,156.188766,68.088577,77.589149,144.288223,75.303001,48.776745,82.883804
497,0,-133.069748,145.875061,106.374985,13.694530,101.293266,154.173935,67.535995,74.487846,142.293442,73.728111,45.829380,80.857224
498,0,-133.483994,143.560165,105.050446,13.343954,99.023582,152.175949,67.099648,71.682892,140.228104,72.494881,42.799992,78.794075
499,0,-133.671844,141.374802,103.576752,13.376393,97.023232,150.035400,66.683945,69.177391,138.033325,71.346527,39.888260,76.811127
500,0,-133.847229,139.529861,102.269165,13.331269,95.212891,147.977570,66.501762,66.991127,135.722000,70.366020,37.102615,74.616173
501,0,-133.934128,137.767059,100.919472,13.409370,93.486732,145.706497,66.428696,64.909004,133.398972,69.214325,34.574619,72.539551
502,0,-133.719849,135.943314,99.329063,13.619236,91.719368,143.448669,66.413506,62.896534,131.010468,68.345291,32.133572,70.357437
503,0,-133.653015,134.360596,98.042847,13.659105,89.981514,141.218979,66.362259,60.816265,128.708359,67.516632,29.813034,68.150940
504,0,-133.660980,132.959152,96.997047,13.804709,88.255569,139.149918,66.293625,58.720875,126.502129,66.882553,27.693331,65.854767
505,0,-133.539902,131.468430,95.789230,13.707515,86.481209,137.084473,66.239044,56.791157,124.346153,66.566483,25.764709,63.772717
506,0,-133.434540,129.960281,94.628311,13.894038,84.846024,135.134857,66.203659,55.040234,122.292877,66.227013,24.059568,61.644402
507,0,-133.328842,128.296478,93.256538,13.761214,83.220917,133.166641,66.257927,53.498806,120.294327,66.270035,22.426008,59.655563
508,0,-133.413071,126.847771,92.274719,13.801418,81.722038,131.242569,66.326645,52.115780,118.378227,66.413322,20.925442,57.764191
509,0,-133.498306,125.356270,91.034920,13.755193,80.313339,129.311539,66.246971,50.718933,116.448975,66.501831,19.448853,55.963196
510,0,-133.645248,123.357224,89.685875,13.669171,78.904404,127.448769,66.256783,49.324974,114.647148,66.271324,18.089027,54.088173
511,0,-133.465454,122.068535,88.424362,13.609979,77.597534,125.496819,66.184731,47.922382,112.644302,65.664604,16.795273,52.070713
512,0,-133.447449,120.808189,87.171944,13.847284,76.264565,123.692009,66.153999,46.458382,110.648911,64.630966,15.600781,49.941616
513,0,-133.215057,119.668869,85.758820,13.705731,75.061905,121.683998,65.954483,45.147892,108.447922,63.675575,14.379824,47.758923
514,0,-133.176147,118.617493,84.429314,13.713266,73.976601,119.707245,65.955109,43.881931,106.364510,62.743984,13.063324,45.751637
515,0,-133.111893,117.403610,82.996826,13.440816,72.997116,117.750244,65.645966,42.557041,104.287628,61.962261,11.756767,43.777905
516,0,-133.229645,116.299820,81.563232,13.088257,71.964325,115.733459,65.263733,41.290520,102.462997,61.189243,10.410867,42.067513
517,0,-133.286087,115.208435,80.048943,12.804325,70.836487,113.913589,64.830299,40.041191,100.819656,60.483334,9.207076,40.394360
518,0,-133.340179,114.146515,78.466934,12.250892,69.896309,112.132812,64.148552,38.955502,99.409569,60.111725,8.016506,39.024609
519,0,-133.454422,113.056969,76.909798,11.495058,69.005295,110.449051,63.703053,38.165817,98.087494,60.096748,7.144555,37.749962
520,0,-133.583466,111.940834,75.280952,10.740305,68.165665,108.728874,63.158459,37.512062,96.889702,60.191532,6.186978,36.658882
521,0,-133.768814,110.894730,73.738724,9.614054,67.398209,106.981346,62.574604,36.927990,95.770020,60.315113,5.388903,35.590130
522,0,-133.993301,109.811760,72.165268,8.876147,66.350273,105.347336,61.909576,36.221981,94.545753,60.055176,4.690399,34.357166
523,0,-134.370865,108.870209,70.715782,8.018026,65.661507,103.662079,61.278076,35.377895,93.323479,59.196980,3.993741,33.001675
524,0,-134.704224,108.050308,69.298119,7.186310,64.817093,102.045425,60.424458,34.439972,91.764290,58.061848,3.290262,31.435024
525,0,-134.918533,107.194611,67.810120,6.707091,64.056885,100.432495,59.741825,33.544193,90.280701,56.744736,2.573073,29.934378
526,0,-135.176453,106.551918,66.340614,6.080183,63.511559,98.816208,58.910049,32.681179,88.742340,55.485413,1.889687,28.461784
527,0,-135.377640,105.919556,64.869904,5.127558,63.188950,97.134109,58.192490,32.004509,87.333542,54.491085,1.321357,26.992460
528,0,-135.589355,105.346336,63.410103,4.427170,62.801979,95.502380,57.511589,31.547508,85.847069,53.439091,0.881556,25.573935
529,0,-135.695709,104.804802,61.991505,3.985423,62.378155,93.767601,56.785652,31.287725,84.405121,52.855686,0.543314,24.118608
530,0,-135.954788,104.220985,60.597824,2.991235,62.171463,92.004684,56.320305,31.137489,82.894905,52.525436,0.193226,22.751476
531,0,-136.323853,103.656578,59.286438,2.593877,61.758430,90.403481,55.822754,31.022333,81.356018,52.204556,-0.152403,21.317335
532,0,-136.712875,103.256760,58.121845,1.824116,61.424557,88.683212,55.229946,30.829760,80.001732,52.049580,-0.498261,20.018007
533,0,-137.074249,102.849258,56.977116,0.914986,61.198875,87.233856,54.529404,30.508717,78.546867,51.549797,-0.837496,18.572720
534,0,-137.533401,102.617378,55.805870,0.231759,60.819519,85.802795,53.936169,30.155436,77.242889,51.028252,-1.148730,17.213812
535,0,-138.031616,102.450577,54.650024,-0.029561,60.549763,84.429161,53.305859,29.862684,75.913269,50.479401,-1.528553,15.907159
536,0,-138.402069,102.371765,53.682274,-0.886898,60.520836,83.088272,52.634190,29.731037,74.671547,50.064266,-1.805384,14.815875
537,0,-138.799088,102.273003,52.738869,-1.390593,60.257858,81.730049,52.186249,29.676285,73.598389,49.662510,-2.206972,13.810909
538,0,-139.105148,102.250832,51.727013,-1.830527,60.161194,80.579208,51.646915,29.584824,72.471581,49.481548,-2.516894,12.780116
539,0,-139.482300,102.253143,50.992336,-2.286895,59.837833,79.425865,51.214790,29.431530,71.279915,49.188381,-2.695709,11.536373
540,0,-139.826630,102.305237,50.393448,-2.819294,59.572201,78.498665,50.870667,29.141209,70.109314,49.043476,-2.785166,10.331138
541,0,-140.113800,102.324280,49.892662,-3.081158,59.189751,77.702812,50.631458,29.209435,69.506866,49.098282,-3.183725,10.217715
542,0,-140.255142,102.452118,49.380219,-3.563884,59.275326,77.068672,50.310528,29.438774,69.362785,49.398411,-3.266148,10.148733
543,0,-140.537994,102.590599,49.205463,-3.794104,59.380207,76.697510,50.132271,29.715172,69.223274,49.872128,-3.178727,10.061709
544,0,-140.678253,102.783844,49.072025,-3.828974,59.610195,76.411438,50.071930,30.064756,69.089905,50.178379,-3.126806,10.050759
545,0,-140.853592,103.040520,49.085251,-3.620073,59.815006,76.163017,50.274921,30.423519,68.877060,50.436543,-3.140356,10.066002
546,0,-140.889923,103.262512,49.157570,-3.399141,59.993465,75.960587,50.440376,30.663162,68.728882,50.604179,-3.170367,10.057137
547,0,-140.871765,103.532051,49.197117,-3.149542,60.083912,75.758652,50.665916,30.810215,68.576813,50.882034,-3.215319,10.089820
548,0,-140.726868,103.706528,49.242485,-2.915197,60.081680,75.579613,50.762238,30.837854,68.466461,51.067841,-3.316463,10.071428
549,0,-140.652939,103.844574,49.219357,-2.680364,59.978313,75.337784,50.912865,30.828320,68.361595,51.198997,-3.446719,10.086917
550,0,-140.585983,103.945892,49.224953,-2.613484,59.826637,75.033669,51.037140,30.800106,68.236824,51.409195,-3.596339,10.129515
551,0,-140.515030,104.001183,49.182133,-2.601820,59.649097,74.753761,51.064892,30.767965,68.105171,51.532162,-3.803315,10.200115
552,0,-140.482574,104.011040,49.111748,-2.738323,59.441154,74.431160,51.009235,30.704607,68.012589,51.447353,-3.906823,10.258982
553,0,-140.579376,104.084175,48.940258,-2.826841,59.304386,74.089645,50.899193,30.698351,67.922325,51.472744,-3.971489,10.265613
554,0,-140.623566,104.137299,48.790703,-2.936263,59.280815,73.772339,50.840611,30.758549,67.801620,51.533474,-4.016104,10.318480
555,0,-140.655731,104.222305,48.589970,-3.014214,59.336620,73.449844,50.724861,30.935020,67.677711,51.608051,-4.009591,10.283415
556,0,-140.845062,104.368202,48.422684,-3.194395,59.427048,73.193260,50.594059,31.139969,67.525749,51.611870,-3.986101,10.263525
557,0,-140.891235,104.478676,48.223106,-3.326588,59.556698,72.967751,50.454266,31.326536,67.418182,51.599342,-3.972468,10.261259
558,0,-140.947205,104.605804,48.045197,-3.513415,59.682819,72.816490,50.314533,31.529919,67.348518,51.578770,-3.906113,10.254018
559,0,-141.051773,104.722122,47.924469,-3.651446,59.787205,72.649101,50.148212,31.616249,67.269775,51.492214,-3.880489,10.201943
560,0,-141.203064,104.741440,47.904972,-3.784394,59.850807,72.576958,50.047348,31.685337,67.223114,51.474075,-3.887693,10.200029
561,0,-141.233841,104.734818,47.887562,-3.870987,59.908344,72.579857,49.961178,31.747063,67.192833,51.387428,-3.887996,10.186136
562,0,-141.322083,104.816780,47.831768,-3.913810,59.917133,72.539040,49.891537,31.736179,67.195709,51.371456,-3.884089,10.146452
563,0,-141.322510,104.805199,47.829407,-3.984855,59.932297,72.522957,49.823051,31.710983,67.176659,51.373325,-3.895814,10.136130
564,0,-141.303711,104.811226,47.889900,-4.002788,59.933155,72.524925,49.766266,31.701565,67.195366,51.316216,-3.920255,10.126711
565,0,-141.281952,104.831551,47.901627,-3.992819,59.923332,72.543625,49.741161,31.676706,67.177231,51.314819,-3.931267,10.137093
566,0,-141.225128,104.843803,47.926590,-3.992899,59.931957,72.540672,49.750729,31.675167,67.162086,51.319164,-3.940070,10.095469
567,0,-141.212692,104.862778,47.919109,-3.935638,59.980530,72.546036,49.724857,31.715080,67.169312,51.413574,-3.940947,10.128211
568,0,-141.138763,104.931961,47.890858,-3.990412,60.054020,72.568352,49.737385,31.737734,67.192909,51.503876,-3.931671,10.166943
569,0,-141.045715,104.981979,47.871014,-3.936206,60.098614,72.538246,49.707775,31.806669,67.198181,51.586147,-3.932941,10.175481
570,0,-141.009613,105.046432,47.859188,-3.907063,60.155235,72.533669,49.634197,32.027653,67.099480,51.708443,-3.890145,10.184813
571,0,-140.995621,105.093925,47.855057,-3.919863,60.246342,72.554962,49.730141,31.946980,67.217407,51.776402,-3.848069,10.217151
572,0,-140.955856,105.144798,47.814392,-3.927574,60.299053,72.577614,49.674149,32.107430,67.158447,51.793152,-3.807327,10.265373
573,0,-140.956085,105.160225,47.807789,-3.937286,60.344452,72.617531,49.698734,32.071644,67.228188,51.841610,-3.797928,10.275636
574,0,-140.935043,105.179153,47.775822,-3.983408,60.420753,72.660843,49.707680,32.042000,67.279305,51.906628,-3.726827,10.322327
575,0,-140.859360,105.128860,47.738949,-4.042920,60.425137,72.695633,49.703621,32.015152,67.342339,51.939472,-3.713820,10.348376
576,0,-140.787155,105.116302,47.724724,-4.081496,60.470715,72.702614,49.667164,32.055286,67.338669,51.948143,-3.677011,10.318721
577,0,-140.768112,105.080612,47.724415,-4.196233,60.534397,72.756599,49.652248,32.052837,67.371361,51.996037,-3.500856,10.174979
578,0,-140.758682,105.058632,47.676132,-4.226642,60.557289,72.761017,49.625923,32.072323,67.372223,52.047729,-3.515857,10.151201
579,0,-140.720810,104.981812,47.665676,-4.379250,60.591106,72.743469,49.610302,32.075832,67.353920,52.088665,-3.564504,10.189696
580,0,-140.726120,104.954918,47.576862,-4.458081,60.619778,72.741058,49.574287,32.100967,67.342514,52.103584,-3.584334,10.163857
581,0,-140.707031,104.929283,47.557644,-4.579470,60.628418,72.717201,49.530796,32.065979,67.341888,52.109173,-3.613521,10.171549
582,0,-140.743484,104.860344,47.508595,-4.652095,60.591618,72.669357,49.497940,32.065643,67.316818,52.088211,-3.593453,10.137467
583,0,-140.793427,104.830521,47.480015,-4.762071,60.630116,72.618202,49.406860,32.099033,67.288963,52.074100,-3.631510,10.138109
584,0,-140.825516,104.840714,47.408585,-4.811747,60.628944,72.580101,49.395782,32.122719,67.271126,52.042969,-3.620418,10.086450
585,0,-140.890366,104.804688,47.386284,-4.869097,60.656288,72.519356,49.377590,32.129631,67.249069,52.030205,-3.631498,10.067932
586,0,-140.929230,104.801720,47.387012,-4.969504,60.679489,72.490891,49.302422,32.156734,67.223495,52.014057,-3.621636,10.052574
587,0,-140.958786,104.769386,47.364391,-5.010418,60.692841,72.477173,49.270393,32.188747,67.215736,52.011574,-3.614941,10.030214
588,0,-141.006042,104.732430,47.367279,-5.048173,60.674202,72.456940,49.243305,32.153191,67.194260,52.043537,-3.592090,10.016678
589,0,-141.035736,104.740479,47.383156,-5.066602,60.675663,72.445114,49.233181,32.159912,67.190651,52.063126,-3.603994,10.005898
590,0,-141.030182,104.724472,47.425800,-5.093882,60.657127,72.411377,49.219505,32.188629,67.154961,52.070557,-3.653344,10.009762
591,0,-141.054443,104.736725,47.427067,-5.076452,60.663620,72.386192,49.195957,32.219292,67.156891,52.082436,-3.654397,10.020987
592,0,-141.050980,104.732620,47.461052,-5.073241,60.672447,72.368256,49.204269,32.237656,67.150185,52.072258,-3.656178,9.999698
593,0,-141.017868,104.762581,47.472504,-5.099183,60.737904,72.376579,49.181252,32.254585,67.136368,52.058125,-3.653807,9.992317
594,0,-140.995468,104.863625,47.511814,-5.074263,60.804966,72.358101,49.195400,32.276482,67.126137,52.041386,-3.619823,10.010931
595,0,-140.941803,104.961578,47.530891,-5.085631,60.881470,72.366714,49.198463,32.335415,67.129593,52.091164,-3.545825,10.025478
596,0,-140.902206,105.056305,47.546227,-5.028507,60.962345,72.350250,49.232204,32.416542,67.128830,52.101044,-3.498976,10.043668
597,0,-140.796387,105.136192,47.542164,-4.978829,61.058445,72.363213,49.279198,32.488068,67.113914,52.112370,-3.454008,10.031769
598,0,-140.738800,105.205162,47.629272,-4.916371,61.130539,72.346619,49.364117,32.554150,67.077171,52.160767,-3.430689,10.038902
599,0,-140.696426,105.277885,47.605755,-4.833450,61.213978,72.361702,49.422073,32.626595,67.066444,52.190063,-3.427283,10.043059
600,0,-140.612137,105.319794,47.651783,-4.793483,61.262070,72.352539,49.473118,32.647594,67.033623,52.183884,-3.418903,10.037193
601,0,-140.552765,105.345253,47.633198,-4.688041,61.263744,72.348785,49.526024,32.656925,67.003136,52.206413,-3.450460,10.031322
602,0,-140.412933,105.341400,47.635799,-4.634339,61.277710,72.392220,49.565567,32.658619,67.000397,52.216949,-3.469117,10.035736
603,0,-140.396179,105.352188,47.661736,-4.605442,61.278297,72.402687,49.572929,32.651897,66.994957,52.222507,-3.462490,10.036729
604,0,-140.336594,105.348793,47.706043,-4.570719,61.296669,72.398361,49.615429,32.621197,67.017761,52.240696,-3.495779,10.071941
605,0,-140.365509,105.324066,47.734524,-4.568745,61.294685,72.396156,49.650578,32.622913,66.991310,52.265400,-3.492497,10.069588
606,0,-140.390198,105.327972,47.742733,-4.559110,61.318058,72.390396,49.659252,32.641838,66.986153,52.256390,-3.471304,10.073522
607,0,-140.450439,105.331169,47.747025,-4.544042,61.314327,72.385307,49.645828,32.668758,66.964104,52.251736,-3.459408,10.070395
608,0,-140.450012,105.332138,47.721889,-4.542264,61.353920,72.374908,49.621151,32.705944,66.950203,52.247215,-3.455941,10.060634
609,0,-140.466171,105.394402,47.674854,-4.579394,61.390938,72.368561,49.578823,32.758495,66.944000,52.231209,-3.452810,10.049736
610,0,-140.453354,105.412956,47.638721,-4.648248,61.419884,72.310745,49.579281,32.758751,66.945801,52.241447,-3.454760,10.059194
611,0,-140.467392,105.437180,47.538368,-4.711395,61.454281,72.316544,49.525665,32.788197,66.926964,52.225986,-3.437431,10.045856
612,0,-140.525803,105.454727,47.519997,-4.750585,61.476887,72.299171,49.459175,32.838833,66.953209,52.210091,-3.423948,10.064137
613,0,-140.518097,105.498627,47.484791,-4.824838,61.521507,72.269592,49.431324,32.865185,66.950630,52.182262,-3.362226,10.048129
614,0,-140.511154,105.494698,47.404972,-4.826112,61.564392,72.245491,49.389378,32.918701,66.919167,52.198898,-3.317787,10.050630
615,0,-140.504547,105.551109,47.338264,-4.886075,61.604858,72.220062,49.373638,32.957508,66.931801,52.199638,-3.306206,10.054030
616,0,-140.523468,105.582138,47.296124,-4.923952,61.634048,72.219337,49.348911,32.995731,66.931580,52.257656,-3.295884,10.061067
617,0,-140.516388,105.600067,47.287197,-5.225403,61.878082,72.064278,49.330002,33.021069,66.929024,52.259655,-3.265008,10.063471
618,0,-140.514236,105.618858,47.230286,-5.247406,61.888218,72.026352,49.311695,33.027805,66.922989,52.239155,-3.252111,10.042872
619,0,-140.506104,105.609833,47.202740,-5.245710,61.887157,72.000664,49.312229,33.031307,66.906281,52.290661,-3.264578,10.014027
620,0,-140.495941,105.613724,47.196575,-5.241154,61.889046,71.997238,49.332966,33.054691,66.898949,52.322216,-3.280350,10.026308
621,0,-140.495789,105.610077,47.204914,-5.219635,61.896683,72.017876,49.357365,33.065868,66.894333,52.318130,-3.263237,10.045786
622,0,-140.450333,105.586525,47.187130,-5.168757,61.925900,72.035637,49.374405,33.088509,66.905563,52.323685,-3.248140,10.009415
623,0,-140.438553,105.626045,47.186188,-5.128619,61.972496,72.058197,49.389854,33.107861,66.894676,52.320896,-3.249219,10.018995
624,0,-140.443832,105.669067,47.162395,-5.070560,62.019745,72.041954,49.433548,33.141312,66.846115,52.343811,-3.234009,10.025028
625,0,-140.394333,105.696434,47.142788,-5.046462,62.072929,72.038292,49.478065,33.174065,66.838890,52.397755,-3.208098,10.028562
626,0,-140.362579,105.734985,47.118687,-5.000997,62.099667,72.018738,49.532433,33.182457,66.832291,52.395512,-3.213193,10.026454
627,0,-140.351501,105.731171,47.110909,-4.960671,62.130054,72.015877,49.554512,33.215481,66.838547,52.393074,-3.231805,10.033113
628,0,-140.321259,105.758133,47.082024,-4.914690,62.127880,72.028595,49.560230,33.207935,66.835823,52.414593,-3.221582,10.026882
629,0,-140.280075,105.771271,47.079166,-4.922684,62.120827,72.022919,49.570694,33.190662,66.850624,52.421322,-3.212404,10.014226
630,0,-140.285858,105.773544,47.078518,-4.914419,62.104317,72.030685,49.572639,33.186512,66.844093,52.433899,-3.249221,9.994870
631,0,-140.262115,105.812675,47.073402,-4.711991,61.928947,72.130867,49.572617,33.186653,66.874290,52.431442,-3.252652,10.020677
632,0,-140.275223,105.827484,47.050240,-4.739410,61.966240,72.114059,49.577305,33.205109,66.847954,52.408459,-3.241219,10.022405
633,0,-140.286865,105.877014,47.040287,-4.957241,62.174747,72.011604,49.560863,33.227016,66.825890,52.403198,-3.209117,10.007339
634,0,-140.291626,105.896378,47.028301,-4.782679,61.994972,72.093834,49.544197,33.226120,66.823357,52.421307,-3.222813,10.009706
635,0,-140.263687,105.903580,47.017269,-4.805229,61.992561,72.090096,49.490665,33.206371,66.834106,52.405594,-3.207093,10.021033
636,0,-140.319672,105.916466,47.002422,-4.819307,61.974506,72.084709,49.436401,33.195908,66.828575,52.399895,-3.208771,10.002813
637,0,-140.300476,105.914543,47.015938,-4.815343,61.981869,72.086784,49.428581,33.221691,66.825523,52.371723,-3.200574,10.001256
638,0,-140.330551,105.899475,47.036369,-4.826521,61.999390,72.081657,49.446873,33.237740,66.823097,52.376850,-3.206986,9.996836
639,0,-140.384369,105.962502,47.021282,-4.804858,62.010674,72.076286,49.482712,33.279221,66.802475,52.377121,-3.201560,10.001582
640,0,-140.357468,105.972473,47.034355,-4.779627,62.043648,72.084953,49.486874,33.315941,66.795563,52.388680,-3.182142,9.997800
641,0,-140.366104,105.987999,47.021523,-4.792800,62.086140,72.082321,49.505600,33.335888,66.799736,52.415394,-3.153686,9.995985
642,0,-140.394958,105.981796,46.998569,-4.787184,62.079350,72.090614,49.502903,33.376839,66.793961,52.426224,-3.133543,9.979501
643,0,-140.386841,105.992661,46.975227,-4.799060,62.078831,72.081703,49.481560,33.380356,66.778618,52.458080,-3.119464,10.006482
644,0,-140.407288,105.977425,46.931129,-4.844307,62.079674,72.084412,49.423409,33.382076,66.793556,52.448200,-3.114421,10.007616
645,0,-140.404404,105.955742,46.885315,-4.868967,62.060486,72.084862,49.421070,33.385010,66.805038,52.445286,-3.106224,10.007513
646,0,-140.442215,105.905663,46.879707,-4.873458,62.036766,72.077309,49.438652,33.364655,66.800270,52.436249,-3.105351,9.985943
647,0,-140.469574,105.906914,46.883190,-4.867530,62.051716,72.084213,49.404381,33.378826,66.804291,52.438194,-3.105298,9.979753
648,0,-140.445007,105.874161,46.877403,-4.849996,62.052010,72.066483,49.415775,33.388542,66.807076,52.440838,-3.105769,9.990448
649,0,-140.435547,105.883583,46.868896,-4.832690,62.053017,72.058342,49.467247,33.386112,66.780640,52.452488,-3.099737,10.014711
650,0,-140.396393,105.894821,46.844402,-4.814324,62.088261,72.051918,49.480011,33.422249,66.773346,52.456142,-3.099050,10.012254
651,0,-140.377289,105.912651,46.842800,-4.781716,62.105984,72.037537,49.499813,33.454929,66.762505,52.487759,-3.105060,9.993019
652,0,-140.364151,105.922279,46.851925,-4.768804,62.100822,72.052147,49.573696,33.479427,66.739899,52.488247,-3.100170,10.005138
653,0,-140.363434,105.912003,46.837090,-4.748517,62.106941,72.061699,49.563808,33.484489,66.742615,52.500736,-3.099001,9.994277
654,0,-140.353745,105.935211,46.851067,-4.757057,62.118397,72.055771,49.606258,33.447124,66.758621,52.498119,-3.094130,9.984576
655,0,-140.338089,105.906174,46.889671,-4.728832,62.114197,72.064842,49.602783,33.469551,66.750687,52.484852,-3.091612,9.981774
656,0,-140.382034,105.929031,46.886848,-4.722600,62.123207,72.072380,49.609463,33.467197,66.796890,52.504292,-3.096207,9.973417
657,0,-140.344421,105.936325,46.864368,-4.726357,62.164894,72.084076,49.598660,33.467808,66.817917,52.494530,-3.090032,10.002954
658,0,-140.343964,105.975937,46.851547,-4.703679,62.191196,72.085022,49.583782,33.490150,66.802658,52.494778,-3.093685,10.016674
659,0,-140.367722,105.994873,46.886330,-4.715859,62.213413,72.071068,49.575680,33.499798,66.790955,52.490509,-3.090382,10.022461
660,0,-140.372269,106.054070,46.861595,-4.745136,62.222466,72.051521,49.584633,33.534676,66.772652,52.488712,-3.073512,10.016421
661,0,-140.395615,106.058769,46.881622,-4.734938,62.254375,72.064522,49.601158,33.553608,66.782608,52.506676,-3.020163,10.016800
662,0,-140.385132,106.078918,46.867729,-4.723173,62.289570,72.063225,49.550850,33.615089,66.758583,52.499077,-2.994444,10.014869
663,0,-140.468781,106.087242,46.875759,-4.768453,62.328388,72.066818,49.567234,33.674511,66.771980,52.462624,-2.968457,9.969045
664,0,-140.471786,106.082253,46.886780,-4.765790,62.339005,72.063957,49.565323,33.688519,66.731743,52.513588,-2.923373,9.954546
665,0,-140.486511,106.098488,46.863640,-4.816730,62.351776,72.036133,49.537472,33.693890,66.739960,52.452595,-2.931751,9.910604
666,0,-140.476410,106.112816,46.848694,-4.794828,62.356041,72.038200,49.531284,33.694511,66.732269,52.474480,-2.907436,9.960793
667,0,-140.562912,106.070740,46.832901,-4.820379,62.359638,72.042130,49.519054,33.724415,66.709442,52.416744,-2.932725,9.960712
668,0,-140.569122,106.060097,46.832359,-4.849883,62.356892,72.013046,49.498482,33.727303,66.696083,52.409454,-2.926854,9.955098
669,0,-140.596100,106.044662,46.820644,-4.894231,62.330322,71.980614,49.493233,33.730949,66.710754,52.405361,-2.927962,9.929918
670,0,-140.600525,106.032089,46.812931,-4.888447,62.352089,71.964050,49.490944,33.737431,66.687233,52.423641,-2.909190,9.941156
671,0,-140.608749,105.992798,46.789062,-4.934152,62.378647,71.979904,49.451633,33.774616,66.697136,52.407951,-2.888932,9.938434
672,0,-140.644180,105.999496,46.783306,-4.941811,62.393555,71.981400,49.452415,33.783295,66.700470,52.383072,-2.874297,9.908342
673,0,-140.642075,106.012825,46.793007,-4.939987,62.420551,71.965889,49.456970,33.790730,66.700317,52.374290,-2.867931,9.913679
674,0,-140.659637,106.003876,46.840954,-4.934166,62.473701,71.974297,49.460949,33.825848,66.693115,52.402813,-2.826252,9.916575
675,0,-140.606094,106.061050,46.828243,-4.897100,62.515789,71.975746,49.506886,33.889519,66.691849,52.371422,-2.792117,9.907334
676,0,-140.602631,106.095840,46.799942,-4.850658,62.546127,71.974800,49.531704,33.934486,66.669052,52.389225,-2.742020,9.898070
677,0,-140.602325,106.089256,46.817020,-4.850360,62.562222,71.978043,49.547123,33.940422,66.650078,52.384090,-2.726147,9.887929
678,0,-140.580185,106.095100,46.828770,-4.865329,62.556625,71.961082,49.560165,33.929569,66.692299,52.360493,-2.728062,9.895668
679,0,-140.574265,106.126663,46.815571,-4.866098,62.541321,71.959015,49.564461,33.915520,66.673286,52.367134,-2.721680,9.887397
680,0,-140.546783,106.115944,46.838264,-4.844013,62.522671,71.965111,49.558044,33.918163,66.688766,52.291229,-2.981466,10.197887
681,0,-140.518982,106.101387,46.811192,-4.828957,62.518002,71.969673,49.574291,33.905109,66.674171,52.342918,-2.804991,9.960759
682,0,-140.557556,106.077782,46.811676,-4.834705,62.510929,71.951035,49.596123,33.888069,66.678490,52.323429,-2.809591,9.965709
683,0,-140.543274,106.079346,46.813618,-4.844672,62.510265,71.933266,49.576645,33.904793,66.664291,52.301811,-2.821247,9.978179
684,0,-140.512421,106.085342,46.810635,-4.860240,62.514862,71.935272,49.568180,33.903851,66.661552,52.285988,-2.975421,10.193644
685,0,-140.546234,106.049934,46.823483,-4.866197,62.521435,71.934174,49.578888,33.904102,66.664101,52.311462,-2.969931,10.169212
686,0,-140.555710,106.052498,46.833038,-4.860836,62.531761,71.929489,49.562683,33.902084,66.661064,52.296486,-2.982016,10.177326
687,0,-140.568146,106.121063,46.769760,-4.898285,62.545864,71.885376,49.546730,33.932091,66.647545,52.305054,-2.983193,10.184069
688,0,-140.589142,106.119240,46.772205,-4.907495,62.557323,71.894333,49.543110,33.946911,66.650383,52.295578,-2.851470,10.045214
689,0,-140.567993,106.107674,46.776577,-4.910684,62.572620,71.872238,49.534958,33.964302,66.660301,52.315899,-2.855962,10.073868
690,0,-140.591324,106.123192,46.759403,-4.898741,62.581509,71.860550,49.529648,33.982475,66.647171,52.287174,-2.885544,10.085850
691,0,-140.613831,106.129288,46.726250,-4.940336,62.579670,71.824272,49.503483,34.005661,66.618561,52.283138,-2.898477,10.119123
692,0,-140.630905,106.139984,46.729515,-4.988626,62.601974,71.809380,49.465260,34.017139,66.611504,52.297916,-2.920367,10.113655
693,0,-140.639557,106.172600,46.746170,-4.973015,62.597275,71.812981,49.461090,34.024021,66.615013,52.283924,-2.924570,10.135466
694,0,-140.670349,106.182426,46.704174,-4.981023,62.621952,71.801682,49.443321,34.039558,66.600121,52.293198,-2.950918,10.163843
695,0,-140.683395,106.198906,46.705730,-4.999469,62.658005,71.780136,49.434685,34.070541,66.582207,52.286858,-2.933076,10.171723
696,0,-140.707794,106.224709,46.669998,-4.992729,62.686325,71.793358,49.449623,34.102512,66.589798,52.274189,-2.892058,10.145662
697,0,-140.707352,106.240189,46.646240,-5.037597,62.683990,71.800377,49.420197,34.128319,66.641594,52.298862,-2.870566,10.121062
698,0,-140.714462,106.240067,46.589508,-5.066469,62.704048,71.789841,49.393856,34.141506,66.632423,52.293468,-2.870427,10.122764
699,0,-140.728806,106.250877,46.571598,-5.078394,62.716984,71.770737,49.371357,34.155552,66.614578,52.280060,-2.839648,10.136695
700,0,-140.756424,106.284027,46.532589,-5.090514,62.733494,71.772568,49.322090,34.158802,66.615257,52.272732,-2.831516,10.119943
701,0,-140.824951,106.274330,46.460098,-5.143896,62.731586,71.733040,49.344028,34.158642,66.631882,52.276466,-2.792215,10.081430
702,0,-140.840012,106.246758,46.465126,-5.146841,62.725441,71.738556,49.308090,34.161411,66.625359,52.269485,-2.790741,10.077525
703,0,-140.847015,106.231079,46.416866,-5.181357,62.714180,71.720909,49.289158,34.165638,66.623100,52.274719,-2.791510,10.081659
704,0,-140.881119,106.224884,46.392231,-5.178521,62.688618,71.739830,49.234726,34.142601,66.643822,52.286045,-2.804662,10.082531
705,0,-140.868423,106.200302,46.346939,-5.214365,62.645100,71.752678,49.238995,34.150711,66.659042,52.293732,-2.773824,10.052939
706,0,-140.857529,106.149498,46.330421,-5.244170,62.656403,71.762733,49.257347,34.130863,66.648956,52.284386,-2.752418,10.031608
707,0,-140.852036,106.120598,46.329967,-5.239325,62.655025,71.749062,49.233986,34.146793,66.663605,52.288895,-2.705642,10.011093
708,0,-140.898026,106.171173,46.320644,-5.234627,62.671272,71.768982,49.244556,34.149712,66.664886,52.294384,-2.703652,9.975994
709,0,-140.887894,106.139366,46.289936,-5.195735,62.711582,71.757668,49.280437,34.157551,66.649178,52.297661,-2.694490,9.958782
710,0,-140.886475,106.159859,46.302738,-5.177979,62.722534,71.775764,49.279495,34.188217,66.627869,52.287270,-2.870598,10.168845
711,0,-140.885117,106.229103,46.276333,-5.167019,62.770947,71.732513,49.296902,34.217339,66.619667,52.292904,-2.730099,9.981806
712,0,-140.845093,106.244041,46.232941,-5.162315,62.781780,71.726456,49.308395,34.240337,66.596504,52.287636,-2.705987,9.995583
713,0,-140.852371,106.260826,46.220242,-5.170477,62.791870,71.719940,49.285263,34.267010,66.588623,52.292244,-2.703743,9.986790
714,0,-140.877747,106.310852,46.180164,-5.217204,62.814159,71.725464,49.278107,34.277821,66.599701,52.298496,-2.691895,9.969017
715,0,-140.907516,106.285889,46.155624,-5.210950,62.813969,71.732338,49.281479,34.275967,66.608521,52.292782,-2.685427,9.959620
716,0,-140.942810,106.272484,46.121220,-5.236237,62.788525,71.735069,49.256443,34.255680,66.618553,52.303604,-2.680221,9.956966
717,0,-140.966446,106.297539,46.087563,-5.222223,62.805855,71.708023,49.253189,34.263851,66.617104,52.310822,-2.673024,9.951557
718,0,-140.954834,106.230415,46.088997,-5.237019,62.804752,71.685204,49.247917,34.271507,66.597298,52.303169,-2.644116,9.916397
719,0,-140.987457,106.245010,46.034000,-5.246679,62.820621,71.681557,49.208176,34.280602,66.583542,52.309414,-2.631484,9.885904
720,0,-141.011368,106.266006,45.977345,-5.278176,62.834427,71.662834,49.185936,34.291626,66.575531,52.286057,-2.627048,9.916588
721,0,-141.025650,106.280151,45.908970,-5.292462,62.821732,71.653000,49.156010,34.303688,66.570442,52.280277,-2.597222,9.886648
722,0,-141.068527,106.266357,45.914188,-5.301337,62.821606,71.661842,49.148705,34.305851,66.570229,52.289299,-2.579096,9.871445
723,0,-141.085144,106.271225,45.915779,-5.327465,62.851318,71.643333,49.141300,34.299511,66.564995,52.302715,-2.565187,9.836334
724,0,-141.063171,106.253983,45.937756,-5.335731,62.863708,71.636589,49.123631,34.319294,66.558701,52.289085,-2.563466,9.855164
725,0,-141.061859,106.259171,45.912834,-5.338666,62.882191,71.633492,49.151112,34.340702,66.558846,52.293869,-2.542470,9.838115
726,0,-141.059296,106.279175,45.896866,-5.298076,62.855579,71.632881,49.155632,34.361603,66.563690,52.296886,-2.538229,9.833937
727,0,-141.028442,106.280586,45.867416,-5.297737,62.872150,71.637558,49.154652,34.359589,66.560730,52.305973,-2.538742,9.839287
728,0,-140.990509,106.241791,45.842846,-5.300669,62.855736,71.641083,49.154404,34.350590,66.566933,52.300095,-2.535371,9.832753
729,0,-141.000488,106.235947,45.831024,-5.298600,62.847881,71.634834,49.182156,34.309986,66.567726,52.298748,-2.549001,9.831860
730,0,-140.979645,106.240425,45.832550,-5.299201,62.832191,71.646973,49.179108,34.324154,66.585617,52.305000,-2.547997,9.825607
731,0,-140.999161,106.254837,45.792271,-5.292254,62.855751,71.627121,49.193729,34.310913,66.579498,52.352673,-2.554271,9.779039
732,0,-140.974487,106.272041,45.788296,-5.297715,62.862247,71.623604,49.200932,34.340900,66.580719,52.340355,-2.578175,9.822231
733,0,-140.976410,106.251236,45.807266,-5.286258,62.872974,71.625175,49.214851,34.336388,66.583435,52.359688,-2.538294,9.826731
734,0,-140.977783,106.251762,45.763138,-5.272130,62.865665,71.641609,49.205379,34.356319,66.572411,52.384182,-2.549930,9.848518
735,0,-140.960281,106.235458,45.788162,-5.284327,62.868534,71.632477,49.208599,34.344147,66.566750,52.354572,-2.605012,9.873375
736,0,-140.945694,106.211601,45.765438,-5.298357,62.869080,71.616241,49.231724,34.342121,66.568993,52.393005,-2.580876,9.849441
737,0,-140.928329,106.170448,45.790775,-5.275711,62.874451,71.635078,49.217567,34.346001,66.564308,52.391014,-2.591464,9.834559
738,0,-140.943329,106.166641,45.760109,-5.303864,62.854080,71.615395,49.228718,34.332539,66.564743,52.398609,-2.561513,9.793925
739,0,-140.906967,106.175865,45.747250,-5.287477,62.852306,71.594925,49.236938,34.351334,66.552902,52.404358,-2.572231,9.796746
740,0,-140.901901,106.164017,45.741478,-5.305723,62.842972,71.574326,49.245831,34.346127,66.536270,52.398254,-2.617706,9.834939
741,0,-140.935974,106.186661,45.742229,-5.287204,62.832317,71.572060,49.230568,34.333694,66.524368,52.386040,-2.655316,9.834977
742,0,-140.939331,106.174767,45.763176,-5.279974,62.836662,71.544472,49.255066,34.344669,66.515053,52.431980,-2.638673,9.836773
743,0,-140.920059,106.148270,45.806862,-5.252048,62.847153,71.569603,49.260937,34.338573,66.490372,52.413387,-2.662556,9.813851
744,0,-140.932709,106.154152,45.848663,-5.226450,62.876896,71.568466,49.267014,34.340103,66.504372,52.449753,-2.646857,9.826560
745,0,-140.914597,106.178253,45.861088,-5.195703,62.883759,71.563629,49.297367,34.364536,66.483704,52.459663,-2.645483,9.807759
746,0,-140.943466,106.262146,45.881134,-5.204990,62.922314,71.563019,49.302547,34.403679,66.479729,52.460651,-2.624667,9.800651
747,0,-140.911163,106.286201,45.868439,-5.187325,62.937183,71.567192,49.318485,34.409206,66.479439,52.469715,-2.628271,9.814616
748,0,-140.903198,106.299156,45.878036,-5.186929,62.966957,71.565483,49.312649,34.417576,66.477684,52.452244,-2.645280,9.816180
749,0,-140.891357,106.329826,45.863541,-5.179983,62.981926,71.568779,49.328979,34.444191,66.483093,52.485226,-2.629101,9.829688
750,0,-140.907715,106.332466,45.846756,-5.190218,62.980896,71.558319,49.336166,34.454018,66.486626,52.476612,-2.618417,9.845738
751,0,-140.908310,106.284561,45.871960,-5.180064,62.975025,71.570374,49.327927,34.457214,66.507790,52.467766,-2.622285,9.830137
752,0,-140.898590,106.282150,45.870335,-5.196893,62.970951,71.564659,49.324432,34.443977,66.503418,52.475956,-2.650866,9.809188
753,0,-140.932007,106.238045,45.890484,-5.192659,62.956074,71.570862,49.338070,34.441906,66.485725,52.481880,-2.643763,9.840599
754,0,-140.956192,106.215454,45.901375,-5.192661,62.930325,71.564438,49.344131,34.444107,66.475182,52.490330,-2.657866,9.825814
755,0,-140.942780,106.143143,45.870804,-5.198788,62.924461,71.562691,49.342098,34.441730,66.473679,52.466797,-2.677388,9.818968
756,0,-140.993347,106.186241,45.880577,-5.215270,62.928745,71.543320,49.345154,34.444073,66.478813,52.481056,-2.660702,9.856810
757,0,-140.972153,106.178207,45.884300,-5.211265,62.915081,71.534523,49.313946,34.464420,66.449585,52.490864,-2.696165,9.838162
758,0,-141.008514,106.163055,45.836384,-5.241229,62.908657,71.526855,49.287182,34.474567,66.445595,52.494064,-2.711277,9.853138
759,0,-141.014084,106.143814,45.843456,-5.250161,62.895039,71.527565,49.238434,34.427883,66.454109,52.484695,-2.695832,9.845471
760,0,-141.043427,106.169716,45.899536,-5.247346,62.906712,71.542290,49.236626,34.427223,66.460800,52.480453,-2.708349,9.889379
761,0,-141.027924,106.143867,45.944588,-5.211264,62.910774,71.541443,49.276840,34.439644,66.440140,52.458511,-2.737756,9.856153
762,0,-141.021454,106.179771,45.943459,-5.219522,62.939877,71.538918,49.286232,34.471863,66.438911,52.453289,-2.741599,9.876183
763,0,-141.021530,106.198395,45.947010,-5.213403,62.958271,71.542267,49.294083,34.488609,66.425919,52.443153,-2.741142,9.876752
764,0,-141.047714,106.231712,45.988178,-5.205184,62.981873,71.544670,49.306404,34.493176,66.434456,52.469894,-2.760044,9.889393
765,0,-141.035416,106.261589,46.002201,-5.177474,63.003838,71.521027,49.326237,34.497639,66.434410,52.446953,-2.774446,9.882748
766,0,-141.028992,106.292824,46.011044,-5.185288,62.996475,71.522438,49.319344,34.494015,66.422058,52.453606,-2.797704,9.878029
767,0,-141.031815,106.267868,46.045826,-5.172368,63.007309,71.529388,49.323002,34.470432,66.406090,52.453560,-2.800409,9.876987
768,0,-141.008743,106.287651,46.070915,-5.177389,63.001297,71.513626,49.315754,34.502125,66.413460,52.457771,-2.790554,9.873635
769,0,-140.999115,106.306694,46.101822,-5.173483,63.020378,71.523697,49.327965,34.501377,66.412132,52.471725,-2.803551,9.898746
770,0,-140.996597,106.329796,46.102936,-5.167068,63.034935,71.526749,49.330051,34.512913,66.427177,52.469261,-2.790808,9.883854
771,0,-140.986572,106.337120,46.125568,-5.166281,63.064590,71.530403,49.315071,34.537952,66.444153,52.477360,-2.801680,9.884203
772,0,-140.972794,106.381897,46.117050,-5.182067,63.078857,71.539253,49.309788,34.541634,66.428314,52.483868,-2.772934,9.886921
773,0,-141.009476,106.427979,46.140759,-5.227983,63.120434,71.541252,49.277775,34.587688,66.463516,52.470844,-2.772545,9.907984
774,0,-141.006668,106.485146,46.111767,-5.246149,63.127728,71.520134,49.282444,34.599720,66.451431,52.433640,-2.726823,9.938200
775,0,-141.020752,106.501114,46.026157,-5.259070,63.148544,71.527092,49.223194,34.601109,66.448082,52.435661,-2.733460,9.925232
776,0,-141.077820,106.496498,46.029095,-5.294415,63.155270,71.482567,49.185314,34.596500,66.448227,52.422062,-2.734051,9.916983
777,0,-141.111343,106.524040,46.030102,-5.295591,63.152061,71.474510,49.157169,34.619965,66.448753,52.424480,-2.734572,9.919888
778,0,-141.098083,106.512459,46.037876,-5.338440,63.158691,71.468239,49.132835,34.632725,66.407822,52.405663,-2.749432,9.909871
779,0,-141.177124,106.506508,45.964504,-5.345079,63.191563,71.453598,49.133827,34.632965,66.402023,52.393288,-2.741567,9.882486
780,0,-141.188950,106.466133,45.986122,-5.342935,63.184151,71.438507,49.120365,34.623550,66.408745,52.352486,-2.763465,9.886710
781,0,-141.222504,106.470711,45.982536,-5.368475,63.184917,71.435699,49.113438,34.648212,66.415199,52.365356,-2.765772,9.900932
782,0,-141.227554,106.449089,45.966316,-5.366904,63.179493,71.428291,49.091339,34.647076,66.399483,52.321136,-2.789430,9.882148
783,0,-141.257431,106.437286,45.970886,-5.378394,63.182236,71.400085,49.089828,34.661045,66.368271,52.320271,-2.789757,9.894025
784,0,-141.250290,106.414612,45.964333,-5.391004,63.189194,71.380455,49.064983,34.654194,66.350868,52.327370,-2.787004,9.886263
785,0,-141.249435,106.418839,45.956852,-5.425533,63.188828,71.386826,49.061062,34.663017,66.349304,52.310287,-2.791097,9.890978
786,0,-141.275269,106.417816,45.945667,-5.442635,63.192093,71.375626,49.018688,34.678299,66.338806,52.325050,-2.789195,9.886035
787,0,-141.283096,106.417137,45.934399,-5.504928,63.191189,71.369766,49.000084,34.690453,66.349747,52.323677,-2.790191,9.896027
788,0,-141.309097,106.395813,45.930435,-5.526801,63.202946,71.396080,48.948090,34.693005,66.358658,52.315228,-2.774295,9.868916
789,0,-141.311646,106.412270,45.919388,-5.527745,63.224129,71.372650,48.930824,34.704594,66.369713,52.283108,-2.763581,9.892219
790,0,-141.371964,106.437363,45.908241,-5.547154,63.242889,71.351479,48.937500,34.727539,66.356819,52.293743,-2.734259,9.873995
791,0,-141.405884,106.441948,45.898201,-5.531312,63.281178,71.353249,48.920151,34.796570,66.360825,52.297947,-2.736046,9.874799
792,0,-141.408905,106.437637,45.904526,-5.571577,63.321091,71.349510,48.885834,34.822662,66.339943,52.282963,-2.685276,9.865441
793,0,-141.407242,106.474106,45.859875,-5.591347,63.345612,71.322548,48.876133,34.861069,66.345604,52.285568,-2.681651,9.888193
794,0,-141.442383,106.502495,45.825680,-5.610237,63.348301,71.309166,48.833290,34.896072,66.319679,52.236305,-2.664850,9.906032
795,0,-141.471954,106.496407,45.828102,-5.607657,63.380638,71.286171,48.822113,34.905067,66.298080,52.236649,-2.671979,9.867998
796,0,-141.489197,106.482071,45.810432,-5.626516,63.399448,71.249100,48.828114,34.905006,66.301445,52.235268,-2.656132,9.912158
797,0,-141.509491,106.483620,45.763931,-5.659618,63.396900,71.243698,48.788937,34.926010,66.297058,52.227043,-2.678017,9.881844
798,0,-141.536209,106.508537,45.763275,-5.652967,63.394585,71.232391,48.777096,34.942005,66.273102,52.236996,-2.678641,9.897527
799,0,-141.511215,106.455956,45.727295,-5.671002,63.393562,71.219543,48.788643,34.952679,66.262405,52.241741,-2.677748,9.853867
800,0,-141.552124,106.512146,45.712021,-5.656135,63.435055,71.190460,48.766129,34.961849,66.265022,52.255814,-2.680911,9.858528
801,0,-141.532501,106.453026,45.661316,-5.659351,63.421638,71.180290,48.773342,34.965488,66.249481,52.256481,-2.675791,9.864818
802,0,-141.545929,106.489616,45.666771,-5.710949,63.441948,71.197182,48.739319,34.981365,66.268257,52.254166,-2.678047,9.865170
803,0,-141.526520,106.467216,45.659630,-5.689631,63.437634,71.185440,48.758015,34.993538,66.227058,52.248684,-2.676181,9.862325
804,0,-141.531097,106.450989,45.622379,-5.723029,63.471645,71.153107,48.716690,35.007652,66.208740,52.247532,-2.674875,9.862702
805,0,-141.538483,106.496651,45.571831,-5.768657,63.486343,71.124611,48.712685,35.003574,66.187706,52.232613,-2.659680,9.850968
806,0,-141.512497,106.488220,45.528538,-5.769296,63.471504,71.087593,48.682178,35.010849,66.182076,52.177814,-2.673599,9.820040
807,0,-141.557709,106.529907,45.532917,-5.780248,63.468533,71.090950,48.672733,35.011230,66.169708,52.198689,-2.653742,9.828604
808,0,-141.502853,106.508362,45.518730,-5.801348,63.475609,71.079414,48.655067,35.007816,66.181396,52.123219,-2.649598,9.833049
809,0,-141.519363,106.531860,45.504730,-5.829848,63.477650,71.056000,48.648067,34.993309,66.182396,52.130444,-2.652833,9.843740
810,0,-141.537964,106.559761,45.491753,-5.837741,63.483120,71.065506,48.644772,34.986515,66.174858,52.066910,-2.661947,9.839273
811,0,-141.568451,106.609955,45.469170,-5.812166,63.491589,71.071045,48.626804,35.019768,66.151245,52.079678,-2.662425,9.834347
812,0,-141.556000,106.612267,45.416374,-5.805967,63.519588,71.051239,48.624760,35.035431,66.144920,52.065792,-2.657613,9.845292
813,0,-141.553406,106.626740,45.429703,-5.827683,63.516117,71.049278,48.625748,35.031307,66.155746,52.061596,-2.656075,9.841929
814,0,-141.553024,106.629967,45.421837,-5.841108,63.522583,71.051346,48.600800,35.037350,66.145058,52.052013,-2.658738,9.843173
815,0,-141.552917,106.631523,45.410042,-5.850064,63.492046,71.036316,48.597366,35.035080,66.147491,52.066605,-2.652593,9.836956
816,0,-141.519333,106.628227,45.377258,-5.906714,63.517227,71.016655,48.596111,35.026867,66.141701,52.066856,-2.656092,9.841067
817,0,-141.527817,106.618790,45.379841,-5.894579,63.504608,71.013222,48.558716,35.014385,66.143951,52.052856,-2.652053,9.842111
818,0,-141.530823,106.603973,45.399540,-5.895754,63.517040,71.038544,48.553017,35.013031,66.142418,52.040062,-2.634608,9.846337
819,0,-141.491425,106.617340,45.363865,-5.892687,63.508965,71.009216,48.576210,35.020088,66.128128,52.036381,-2.618965,9.846048
820,0,-141.500870,106.617805,45.309433,-5.874173,63.495838,71.018700,48.605381,35.024673,66.119881,52.029472,-2.588215,9.819701
821,0,-141.500275,106.619209,45.299644,-5.889225,63.513504,71.030914,48.580082,35.035309,66.138443,51.999538,-2.567994,9.824209
822,0,-141.475555,106.638718,45.301247,-5.878630,63.493408,71.018158,48.599392,35.029095,66.115463,51.890953,-2.702167,10.044432
823,0,-141.480591,106.636101,45.297710,-5.880546,63.501759,71.000504,48.576900,35.048050,66.105026,51.881752,-2.707369,10.072200
824,0,-141.483261,106.640457,45.292313,-5.885172,63.493057,71.010628,48.559429,35.041275,66.107864,51.870014,-2.614457,9.948812
825,0,-141.511612,106.642899,45.284039,-5.873260,63.483482,70.990028,48.569485,35.046371,66.096710,51.868820,-2.704026,10.050084
826,0,-141.482559,106.637810,45.288036,-5.869659,63.488014,70.986526,48.558418,35.046146,66.054840,51.893482,-2.703796,10.047482
827,0,-141.474365,106.646713,45.283096,-5.857555,63.489178,70.996269,48.529518,35.077446,66.073395,51.876114,-2.705141,10.064003
828,0,-141.461014,106.644554,45.262356,-5.884332,63.483700,70.997688,48.522942,35.103439,66.095604,51.890808,-2.701979,10.067262
829,0,-141.448730,106.690514,45.249058,-5.872558,63.499622,70.970734,48.458527,35.148499,66.088478,51.859138,-2.696857,10.065225
830,0,-141.450989,106.633804,45.214077,-5.882645,63.483276,70.969528,48.324028,35.237038,66.047997,51.873219,-2.697223,10.058898
831,0,-141.499130,106.672882,45.231411,-5.940247,63.510818,70.941101,48.241829,35.277252,66.062820,51.873802,-2.700189,10.054446
832,0,-141.508987,106.693329,45.231712,-5.952649,63.479336,70.945374,48.118992,35.320652,66.077415,51.857445,-2.704827,10.067504
833,0,-141.531982,106.670601,45.235077,-5.976911,63.498058,70.950249,48.085644,35.299175,66.104752,51.850239,-2.722214,10.048955
834,0,-141.554230,106.655396,45.223904,-5.976222,63.506870,70.948784,48.255596,35.132233,66.221634,51.846264,-2.717074,10.062833
835,0,-141.555588,106.653511,45.218887,-5.968105,63.495152,70.946503,48.239346,35.133564,66.182587,51.830177,-2.722263,10.048662
836,0,-141.558578,106.667908,45.233059,-5.998532,63.521355,70.931343,48.249016,35.130745,66.158195,51.839672,-2.714215,10.059088
837,0,-141.567261,106.644279,45.229137,-5.984674,63.521587,70.915436,48.276184,35.147682,66.156158,51.843395,-2.721926,10.071794
838,0,-141.547989,106.627556,45.252148,-5.961282,63.509075,70.902214,48.306198,35.160938,66.179192,51.829163,-2.699562,10.055573
839,0,-141.529037,106.601974,45.289017,-5.885853,63.481583,70.921997,48.306648,35.147343,66.179291,51.838120,-2.714552,10.073998
840,0,-141.483322,106.606827,45.299309,-5.870107,63.489014,70.929276,48.352783,35.127098,66.173988,51.844112,-2.718045,10.074492
841,0,-141.492508,106.604866,45.303097,-5.823188,63.477634,70.951363,48.354801,35.121597,66.177536,51.840225,-2.735406,10.077992
842,0,-141.480377,106.618027,45.301876,-5.803900,63.484646,70.965385,48.393795,35.119362,66.196724,51.854893,-2.747456,10.092159
843,0,-141.435822,106.600082,45.325516,-5.812028,63.491135,70.959076,48.425159,35.111416,66.189911,51.857208,-2.750283,10.058878
844,0,-141.424957,106.584381,45.327751,-5.779436,63.496685,70.958679,48.404732,35.112438,66.176201,51.836693,-2.754824,10.071289
845,0,-141.405594,106.593086,45.374649,-5.787036,63.482082,70.973885,48.423126,35.093613,66.196205,51.866196,-2.745483,10.060818
846,0,-141.400070,106.614326,45.378292,-5.773220,63.484467,70.979340,48.428432,35.075115,66.186516,51.863522,-2.748671,10.084975
847,0,-141.365936,106.668633,45.412098,-5.754214,63.514553,70.991066,48.442486,35.099167,66.192123,51.856682,-2.773429,10.075458
848,0,-141.400299,106.686676,45.419342,-5.745679,63.512959,70.997581,48.450951,35.127659,66.180046,51.878231,-2.739397,10.075279
849,0,-141.382675,106.701866,45.466049,-5.903294,63.545696,71.065834,48.479332,35.132011,66.178825,51.908920,-2.741642,10.069152
850,0,-141.365997,106.702820,45.483192,-5.698135,63.543736,71.025932,48.497471,35.137539,66.177788,51.893372,-2.739789,10.077991
851,0,-141.357132,106.735786,45.547939,-5.866811,63.532578,71.097725,48.528126,35.141029,66.180580,51.927742,-2.732291,10.126475
852,0,-141.344666,106.724457,45.506863,-5.857666,63.524143,71.094612,48.541199,35.126839,66.179504,51.897652,-2.742536,10.080030
853,0,-141.362366,106.711861,45.558857,-5.843017,63.511131,71.077995,48.543644,35.123291,66.180794,52.121914,-2.841614,10.068696
854,0,-141.359116,106.699593,45.558659,-5.809712,63.488632,71.082504,48.547539,35.087070,66.182335,52.119793,-2.830004,10.010172
855,0,-141.336868,106.640152,45.588863,-5.785295,63.494213,71.068626,48.539814,35.079575,66.193100,52.139317,-2.791005,9.971846
856,0,-141.304413,106.571960,45.585785,-5.783382,63.439579,71.077599,48.577766,35.043526,66.175613,52.109211,-2.799849,9.944012
857,0,-141.326401,106.544754,45.600777,-5.785416,63.415997,71.063980,48.546463,35.015339,66.160477,52.119331,-2.810688,9.939030
858,0,-141.345093,106.536064,45.611725,-5.779006,63.393555,71.069336,48.593048,34.985432,66.174599,52.122810,-2.818821,9.929173
859,0,-141.327225,106.513222,45.636444,-5.792351,63.379677,71.065742,48.581554,34.983852,66.173859,52.129368,-2.811511,9.915820
860,0,-141.318741,106.492981,45.665504,-5.758727,63.385830,71.093224,48.569229,35.000172,66.165764,52.140785,-2.809997,9.907782
861,0,-141.324814,106.519836,45.661091,-5.766663,63.397495,71.069778,48.654503,34.949070,66.159615,52.162239,-2.807532,9.917747
862,0,-141.345230,106.581841,45.723030,-5.761354,63.423737,71.070831,48.541794,35.039223,66.144493,52.169422,-2.799380,9.908262
863,0,-141.343765,106.604744,45.721027,-5.752131,63.426308,71.070312,48.764149,34.921318,66.113724,52.161869,-2.766966,9.883745
864,0,-141.321472,106.641571,45.768238,-5.773336,63.451298,71.052902,48.781231,34.982632,66.091377,52.160847,-2.769146,9.902553
865,0,-141.312729,106.599014,45.770416,-5.998185,63.700333,70.935493,48.739094,35.015049,66.081108,52.166943,-2.768375,9.854845
866,0,-141.325729,106.605865,45.791328,-5.985440,63.681728,70.932648,48.720486,35.056927,66.063171,52.172070,-2.766376,9.843585
867,0,-141.354507,106.594589,45.811928,-6.012504,63.701168,70.933220,48.684093,35.060963,66.013672,52.187561,-2.765805,9.869293
868,0,-141.420258,106.600334,45.830513,-5.878080,63.531921,70.988312,48.677689,35.071793,66.016891,52.156239,-2.767144,9.864309
869,0,-141.460861,106.583847,45.830120,-5.918698,63.538162,70.961914,48.663914,35.099972,65.989738,52.189270,-2.767599,9.863479
870,0,-141.472244,106.570198,45.813587,-5.938096,63.524010,70.967285,48.645866,35.120140,65.969124,52.181892,-2.745934,9.817859
871,0,-141.534180,106.521210,45.793610,-5.961259,63.531586,70.951294,48.619274,35.132610,65.967255,52.131870,-2.762430,9.833826
872,0,-141.540298,106.507439,45.799984,-6.029013,63.534267,70.920532,48.643288,35.141499,65.931610,52.139324,-2.730414,9.837898
873,0,-141.563446,106.474495,45.796127,-6.024646,63.509403,70.886772,48.611443,35.114754,65.899658,52.132839,-2.727266,9.847557
874,0,-141.602570,106.471115,45.771236,-6.050607,63.493549,70.860703,48.655212,35.117374,65.882675,52.129448,-2.725966,9.845073
875,0,-141.566254,106.365181,45.758923,-6.077544,63.479603,70.861893,48.638367,35.118282,65.887512,52.115620,-2.713048,9.841435
876,0,-141.548584,106.339958,45.742844,-6.093261,63.457371,70.841576,48.627766,35.135780,65.870506,52.110546,-2.714307,9.835500
877,0,-141.524246,106.341553,45.710197,-6.085812,63.443722,70.828476,48.642315,35.142063,65.842506,52.119251,-2.715780,9.842355
878,0,-141.565552,106.344833,45.649380,-6.125401,63.449947,70.776573,48.609436,35.170132,65.822945,52.121159,-2.701347,9.836733
879,0,-141.560150,106.357483,45.594326,-6.085126,63.465439,70.753342,48.594906,35.192020,65.809723,52.115273,-2.710840,9.839714
880,0,-141.554596,106.345352,45.588249,-6.118371,63.473465,70.720497,48.579113,35.208977,65.801315,52.131130,-2.732253,9.842033
881,0,-141.516281,106.359680,45.543358,-6.103680,63.482502,70.706261,48.567524,35.247528,65.793526,52.117905,-2.699585,9.841019
882,0,-141.557877,106.313118,45.453152,-6.182755,63.481541,70.649445,48.544151,35.272892,65.774284,52.105759,-2.685049,9.860628
883,0,-141.590088,106.362656,45.389107,-6.224292,63.461578,70.570587,48.531479,35.299103,65.738525,52.127064,-2.673595,9.843589
884,0,-141.562790,106.312347,45.374607,-6.283116,63.475563,70.543587,48.496002,35.333366,65.728912,52.125618,-2.671563,9.852636
885,0,-141.590668,106.283142,45.314163,-6.240264,63.515602,70.529289,48.502411,35.368740,65.713600,52.104984,-2.673939,9.861024
886,0,-141.606705,106.303780,45.289528,-6.240165,63.509800,70.499496,48.496212,35.414940,65.703011,52.119530,-2.665339,9.850760
887,0,-141.581482,106.247139,45.263149,-6.286382,63.501923,70.458237,48.518177,35.433659,65.649216,52.109646,-2.660008,9.847748
888,0,-141.619751,106.215561,45.176941,-6.304712,63.482353,70.410072,48.539444,35.476982,65.621735,52.128078,-2.643109,9.861105
889,0,-141.617722,106.199425,45.126133,-6.297572,63.481861,70.392372,48.539555,35.508720,65.618530,52.120998,-2.645359,9.853196
890,0,-141.663498,106.194908,45.077667,-6.286095,63.499943,70.368011,48.556145,35.554020,65.593330,52.159996,-2.646260,9.874053
891,0,-141.662964,106.159149,45.049038,-6.312766,63.516594,70.370560,48.551441,35.618118,65.531853,52.148529,-2.624616,9.878266
892,0,-141.702789,106.163300,45.006737,-6.349240,63.543343,70.339256,48.569359,35.671520,65.533516,52.141869,-2.606936,9.885747
893,0,-141.693588,106.143288,44.978630,-6.320360,63.547180,70.341270,48.564701,35.755745,65.503998,52.196014,-2.581563,9.878536
894,0,-141.736145,106.143829,44.872242,-6.359935,63.569599,70.312065,48.572865,35.797302,65.470604,52.198349,-2.566312,9.900184
895,0,-141.759171,106.118294,44.810402,-6.412316,63.543892,70.305496,48.449516,35.897991,65.365234,52.213306,-2.509629,9.887871
896,0,-141.715866,106.047279,44.756153,-6.428083,63.535736,70.283516,48.377220,35.924351,65.392349,52.202160,-2.494866,9.883645
897,0,-141.732559,106.002075,44.654091,-6.315456,63.482262,70.227234,48.339069,35.958683,65.405220,52.215061,-2.453981,9.882493
898,0,-141.726135,105.973152,44.542427,-6.680880,63.673878,69.990776,48.496906,35.929901,65.450218,52.225113,-2.438713,9.870646
899,0,-141.733353,105.933823,44.488346,-6.637772,63.429417,70.133728,48.464039,35.906525,65.454842,52.240337,-2.418790,9.898735
900,0,-141.736298,105.883774,44.447208,-6.665887,63.361221,70.112312,48.227333,35.894909,65.470459,52.263062,-2.410680,9.885898
901,0,-141.755341,105.850029,44.425606,-6.667332,63.292934,70.138802,48.429035,35.849655,65.513069,52.252052,-2.444978,9.908841
902,0,-141.762268,105.837906,44.432228,-6.676751,63.233360,70.138931,48.228821,35.804165,65.534668,52.270206,-2.432969,9.900878
903,0,-141.788086,105.853195,44.439583,-6.658948,63.229294,70.183693,48.238899,35.790428,65.561920,52.242897,-2.453217,9.909216
904,0,-141.860901,105.890472,44.546932,-6.812111,63.430168,70.126350,48.334518,35.776714,65.580963,52.277294,-2.462183,9.939420
905,0,-141.951416,105.893700,44.605995,-6.547378,63.285305,70.268883,48.396568,35.809628,65.584991,52.289986,-2.447733,9.941365
906,0,-142.014160,106.041122,44.596489,-6.528078,63.335934,70.283981,48.454594,35.877491,65.552162,52.294621,-2.443625,9.965014
907,0,-142.059250,106.113831,44.636265,-6.569189,63.404163,70.323151,48.466881,35.913837,65.553734,52.257954,-2.449955,9.969370
908,0,-142.124023,106.257072,44.616310,-6.751345,63.641174,70.246323,48.421741,35.937778,65.588951,52.258713,-2.406020,9.984086
909,0,-142.164169,106.336700,44.572987,-6.781168,63.686646,70.212044,48.401573,35.955544,65.602638,52.171593,-2.392429,9.957023
910,0,-142.185440,106.454620,44.476822,-6.694577,63.538403,70.302353,48.303314,35.977665,65.603180,52.144176,-2.393012,9.977469
911,0,-142.242813,106.538506,44.433681,-6.802792,63.550861,70.280823,48.235867,36.005280,65.632660,52.088112,-2.362567,9.975915
912,0,-142.272339,106.617996,44.419300,-7.013823,63.739605,70.217842,48.154877,35.986156,65.675682,52.280190,-2.351004,9.958152
913,0,-142.302521,106.651794,44.456619,-7.055734,63.732349,70.254768,48.102028,35.947281,65.704094,52.284164,-2.324170,9.931981
914,0,-142.340668,106.758797,44.640854,-6.974919,63.746078,70.354233,48.179695,35.951630,65.722313,52.291645,-2.359238,9.931955
