Trajectories
100
,,sano:Uln,,,sano:MPH3,,,sano:Rad,,,sano:PIP3,,,sano:DIP3,,,sano:DIP4,,,
Frame,Sub Frame,X,Y,Z,X,Y,Z,X,Y,Z,X,Y,Z,X,Y,Z,X,Y,Z
,,mm,mm,mm,mm,mm,mm,mm,mm,mm,mm,mm,mm,mm,mm,mm,mm,mm,mm
1,0,-74.356659,147.199478,-3.734187,-22.519903,81.060104,58.597057,-114.134354,79.662346,2.730479,20.698133,38.096397,54.138756,36.493137,8.487329,33.519596,50.054024,36.621185,28.071413
2,0,-74.392395,147.267593,-3.678730,-22.522179,81.063126,58.627480,-114.203239,79.692307,2.843253,20.698277,38.114624,54.133312,36.500469,8.488121,33.507591,50.046093,36.626453,28.071644
3,0,-74.365204,147.289124,-3.635989,-22.449116,81.080338,58.643204,-114.200912,79.838081,2.893470,20.735220,38.116421,54.156643,36.343113,8.586744,33.678410,49.760571,36.674515,28.094202
4,0,-74.336479,147.341614,-3.598563,-22.420162,81.117065,58.645039,-114.109741,79.918655,2.950793,20.755615,38.120953,54.148201,36.551846,8.516586,33.513489,50.083721,36.647503,28.073206
5,0,-74.287216,147.415695,-3.624608,-22.345955,81.152725,58.668396,-114.092537,79.994720,3.008989,20.842108,38.148849,54.152122,36.599716,8.517982,33.517498,50.149303,36.668163,28.040565
6,0,-74.198372,147.528000,-3.578627,-22.292654,81.185867,58.704823,-114.037926,79.963585,3.091071,20.910305,38.156425,54.140350,36.631504,8.517597,33.503441,50.212177,36.686089,28.031519
7,0,-74.141586,147.729935,-3.496923,-22.191963,81.194122,58.743793,-114.004608,79.988930,3.202015,21.011528,38.164284,54.172348,36.701214,8.533483,33.509567,50.292233,36.716480,28.031199
8,0,-74.034187,147.933838,-3.373533,-22.110880,81.198395,58.769650,-113.965309,79.919601,3.331236,21.100126,38.184757,54.176018,36.776413,8.508593,33.503601,50.390163,36.714966,28.009493
9,0,-73.960587,148.097946,-3.262351,-22.032516,81.211433,58.821861,-113.930275,79.944450,3.441794,21.163561,38.172649,54.210304,36.845253,8.520967,33.528458,50.465004,36.722927,28.019278
10,0,-73.916794,148.177353,-3.211556,-21.927992,81.212708,58.865932,-113.873207,79.915497,3.524484,21.262648,38.207550,54.213699,37.014709,8.598601,33.704422,50.464264,36.776199,28.080866
11,0,-74.050262,147.252060,-3.406307,-21.833588,81.235733,58.909798,-113.836990,79.959969,3.666573,21.355986,38.223293,54.214546,37.108303,8.577256,33.652969,50.485153,36.789371,28.090155
12,0,-73.929008,147.815781,-3.211752,-21.761225,81.266670,58.928917,-113.867188,80.010307,3.771461,21.384768,38.261143,54.210171,37.150452,8.604733,33.642700,50.511486,36.817135,28.091337
13,0,-74.031242,147.317703,-3.258180,-21.720289,81.294655,58.948200,-113.874596,80.017998,3.889046,21.437876,38.307137,54.204491,37.170403,8.633236,33.619251,50.534725,36.835560,28.093317
14,0,-74.036491,147.324478,-3.244683,-21.708012,81.315071,58.949699,-113.898376,80.067863,3.992923,21.439459,38.346325,54.192669,37.168198,8.676962,33.634960,50.465603,36.839645,28.097834
15,0,-74.066780,147.328873,-3.152979,-21.732403,81.350731,58.962772,-114.021149,80.022980,4.082829,21.435364,38.372135,54.177227,37.171577,8.707778,33.626072,50.447838,36.851162,28.094353
16,0,-74.128876,147.351547,-3.137271,-21.711159,81.343987,58.999527,-114.280098,79.050591,4.765010,21.406645,38.417374,54.158188,36.995995,8.667792,33.536331,50.473698,36.810253,28.053234
17,0,-74.177887,147.321915,-3.123477,-21.695892,81.348160,59.015240,-114.367966,79.110016,4.828876,21.353216,38.411858,54.137428,36.950027,8.675795,33.495422,50.400627,36.809475,28.039162
18,0,-74.270317,147.323730,-3.122455,-21.694611,81.345650,59.052765,-114.414879,79.075569,4.910314,21.337936,38.441849,54.098026,36.940674,8.674480,33.485126,50.334698,36.808422,28.024166
19,0,-74.358337,147.291641,-3.122774,-21.703793,81.377907,59.070126,-114.480263,79.112068,4.899115,21.320938,38.431736,54.094181,36.908550,8.723866,33.490070,50.292164,36.795567,28.012741
20,0,-74.351334,147.231125,-3.152359,-21.708990,81.397232,59.089989,-114.601784,79.057350,5.033848,21.295124,38.426929,54.073128,36.927364,8.747709,33.489178,50.248009,36.750790,28.022865
21,0,-74.367409,147.236511,-3.130140,-21.732466,81.480789,59.078613,-114.649002,78.968758,5.100892,21.289137,38.427799,54.055756,36.961105,8.775711,33.538921,50.235641,36.713455,28.040854
22,0,-74.382996,147.232910,-3.154281,-21.790125,81.609184,59.017624,-114.688866,78.856125,5.149058,21.278252,38.426117,54.042641,36.984257,8.761450,33.576328,50.257793,36.690384,28.078117
23,0,-74.456482,147.174988,-3.147186,-21.804602,81.574303,59.024868,-114.740211,78.809196,5.322351,21.267160,38.391357,54.065514,36.964542,8.749166,33.547710,50.280743,36.648155,28.162113
24,0,-74.439369,147.189682,-3.094925,-21.900038,81.320786,58.976597,-114.857132,78.821838,5.399325,21.279503,38.384735,54.103302,36.808891,8.676330,33.403450,50.339767,36.562164,28.252285
25,0,-74.490181,147.179596,-3.000803,-21.859301,81.315125,59.025105,-114.868530,79.014938,5.431692,21.354637,38.400593,54.153252,36.849525,8.660652,33.444042,50.305473,36.486034,28.272583
26,0,-74.500130,147.144730,-2.925748,-21.827950,81.306793,59.054417,-114.904495,79.036545,5.557677,21.422028,38.384991,54.223022,36.890026,8.664890,33.453983,50.300934,36.495861,28.315073
27,0,-74.509888,147.170425,-2.835738,-21.781729,81.296783,59.076488,-114.932854,79.017143,5.797903,21.484713,38.389256,54.243229,36.941940,8.662860,33.473892,50.186954,36.386948,28.147558
28,0,-74.522621,147.181503,-2.740741,-21.682217,81.321342,59.135357,-114.867523,79.135567,5.882945,21.574322,38.369362,54.274628,37.008282,8.693002,33.495857,50.248970,36.370487,28.188620
29,0,-74.511238,147.214249,-2.641654,-21.614407,81.320702,59.206520,-114.853676,79.199005,6.073996,21.605837,38.378864,54.263138,37.065910,8.690908,33.529274,50.299843,36.370258,28.229118
30,0,-74.387749,147.276245,-2.550182,-21.496504,81.316223,59.258190,-114.528152,80.538666,5.165673,21.620089,38.343697,54.210197,37.209785,8.679533,33.602238,50.358395,36.363747,28.286570
31,0,-74.360809,147.336563,-2.492568,-21.425940,81.357346,59.301369,-114.540977,80.540146,5.381751,21.691072,38.363750,54.258266,37.294010,8.639453,33.681175,50.479683,36.322174,28.359016
32,0,-74.240112,147.398788,-2.428330,-21.325277,81.440788,59.336109,-114.541908,80.761574,5.476669,21.821508,38.394859,54.310780,37.456081,8.643379,33.741116,50.609219,36.331680,28.417645
33,0,-74.142761,147.524399,-2.386872,-21.188751,81.468018,59.382904,-114.700806,79.986992,6.474308,21.986828,38.407539,54.343742,37.560047,8.640453,33.818470,50.658127,36.332588,28.452091
34,0,-74.044029,147.626389,-2.309298,-21.090773,81.510902,59.418514,-114.509262,81.010910,5.795458,22.055490,38.414341,54.400208,37.711460,8.621085,33.962059,50.544514,36.380112,28.424517
35,0,-73.958824,147.737503,-2.307653,-20.997469,81.498116,59.462059,-114.729568,80.192558,6.766462,22.185497,38.396294,54.470978,37.718975,8.574650,33.905781,50.417648,36.501804,28.293016
36,0,-73.855560,147.805435,-2.376364,-20.931047,81.579811,59.449116,-114.683723,80.284225,6.898045,22.205578,38.444187,54.450993,37.681248,8.642556,33.840992,50.456768,36.505581,28.296062
37,0,-73.756241,147.891891,-2.436566,-20.922289,81.641815,59.415096,-114.684631,80.503571,6.884687,22.212572,38.482555,54.443130,37.482784,8.846178,33.623352,50.431889,36.526772,28.285065
38,0,-73.730133,147.930267,-2.635493,-20.901976,81.704781,59.366444,-114.683075,80.540710,6.846842,22.157381,38.561481,54.363819,37.457905,8.833655,33.605694,50.429661,36.508698,28.274645
39,0,-73.619545,147.936996,-2.784078,-20.946583,81.748451,59.302696,-114.742470,80.646477,6.726344,22.074091,38.615883,54.297298,37.427612,8.831661,33.617989,50.399719,36.530075,28.257935
40,0,-73.567001,147.953629,-2.952628,-21.017170,81.697601,59.247982,-114.740616,80.825470,6.486843,21.950859,38.602173,54.251831,37.401711,8.786774,33.616947,50.349583,36.512096,28.293486
41,0,-73.501587,147.947586,-3.092070,-21.158525,81.648209,59.188797,-114.832291,80.673813,6.416370,21.822716,38.585968,54.243824,37.177471,8.745071,33.580826,50.411396,36.355709,28.298216
42,0,-73.432961,147.888184,-3.242015,-21.342211,81.582535,59.156418,-114.659225,81.578972,5.326345,21.662893,38.495850,54.257950,37.034229,8.745258,33.580643,50.329994,36.337368,28.343878
43,0,-73.379677,147.851624,-3.366603,-21.487661,81.489281,59.098595,-114.901581,80.777290,5.993157,21.539316,38.403591,54.288750,36.971630,8.668119,33.580078,50.253788,36.290966,28.330137
44,0,-73.327286,147.772842,-3.510893,-21.642857,81.435104,59.040688,-114.737709,81.805283,4.868263,21.438622,38.346428,54.299042,36.870708,8.626303,33.583508,50.208035,36.246990,28.357294
45,0,-73.233360,147.716019,-3.601860,-21.758820,81.334465,59.022430,-114.757828,81.631699,4.677128,21.333134,38.288361,54.304485,36.838760,8.577181,33.613495,50.176014,36.191086,28.365433
46,0,-73.170471,147.649826,-3.738675,-21.907179,81.304672,58.971920,-114.793816,81.606300,4.563508,21.240091,38.239220,54.329723,36.717407,8.567867,33.647934,50.174381,36.160065,28.413559
47,0,-73.134300,147.636292,-3.919196,-21.977812,81.236092,58.967258,-114.807213,81.690811,4.310137,21.179377,38.185471,54.323704,36.706982,8.529822,33.629948,50.159313,36.126778,28.404068
48,0,-73.029732,147.611221,-4.087215,-22.051931,81.243279,58.907986,-114.779610,81.599823,4.202787,21.115732,38.147678,54.347355,36.659584,8.477756,33.634335,50.153511,36.102318,28.450226
49,0,-72.954231,147.667252,-4.266109,-22.100222,81.239174,58.884281,-114.729538,81.553619,4.059078,21.077591,38.139679,54.360512,36.615204,8.467971,33.633324,50.148891,36.109886,28.449074
50,0,-72.814156,147.673599,-4.470249,-22.151939,81.257088,58.841091,-114.723679,81.660423,3.773319,21.026741,38.116463,54.359612,36.531895,8.481259,33.651432,50.179165,36.075954,28.484959
51,0,-72.683769,147.709259,-4.694214,-22.200523,81.232872,58.816101,-114.631744,81.723808,3.569156,20.983133,38.093269,54.349808,36.498180,8.478805,33.673191,50.173267,36.059998,28.508444
52,0,-72.541328,147.717773,-4.909223,-22.263426,81.237862,58.787754,-114.640457,81.601730,3.409278,20.901424,38.098698,54.378410,36.356869,8.561194,33.763245,50.018753,36.090446,28.542919
53,0,-72.453552,147.696213,-5.124720,-22.349024,81.209282,58.737972,-114.566940,81.572609,3.250787,20.801882,38.043961,54.382969,36.307255,8.539617,33.767262,49.991844,36.095531,28.549358
54,0,-72.337700,147.693939,-5.282356,-22.462536,81.195740,58.680691,-114.546814,81.733727,3.029434,20.718216,37.985813,54.405113,36.234524,8.540183,33.811562,49.930183,36.063545,28.586891
55,0,-72.233040,147.703735,-5.445989,-22.558620,81.114838,58.659172,-114.494049,81.485786,2.770805,20.600565,37.908951,54.422489,36.153553,8.462795,33.794403,49.939629,35.968868,28.635626
56,0,-72.148079,147.696747,-5.577535,-22.681211,81.062500,58.609898,-114.464882,81.491615,2.633084,20.489843,37.858833,54.439247,36.077721,8.400103,33.797031,49.920650,35.924416,28.675982
57,0,-72.078026,147.675186,-5.649691,-22.788734,80.983772,58.591068,-114.463989,81.332352,2.369706,20.394749,37.757435,54.489483,36.033676,8.349991,33.833290,49.855820,35.911095,28.718193
58,0,-72.037193,147.669785,-5.758927,-22.920475,80.926376,58.585865,-114.436295,81.234085,2.236220,20.259794,37.715652,54.476044,35.971600,8.297585,33.849457,49.791233,35.849094,28.713150
59,0,-71.972237,147.705078,-5.772822,-23.006918,80.910866,58.557579,-114.536621,81.655647,2.227176,20.170937,37.623493,54.532589,35.903214,8.214684,33.860298,49.701290,35.876530,28.768549
60,0,-71.953171,147.762451,-5.751507,-23.077137,80.884941,58.572567,-114.547241,81.553291,2.206771,20.081060,37.585865,54.561440,35.862293,8.174088,33.874489,49.653008,35.847393,28.761120
61,0,-71.942039,147.809937,-5.781131,-23.092407,80.849251,58.603180,-114.567253,81.570564,2.158515,20.023930,37.564484,54.534210,35.836098,8.148126,33.860329,49.629498,35.868477,28.768133
62,0,-71.927422,147.918442,-5.805118,-23.106104,80.897499,58.596386,-114.574669,81.802177,2.171787,19.980524,37.562344,54.531952,35.793144,8.158974,33.858456,49.600109,35.896999,28.761400
63,0,-71.899452,147.981003,-5.796572,-23.104876,80.924568,58.573307,-114.563004,82.899429,2.182552,19.976580,37.576267,54.529808,35.772953,8.170497,33.869267,49.543114,35.945961,28.711874
64,0,-71.910393,148.099075,-5.825577,-23.120522,80.979332,58.576385,-114.627151,82.180664,2.253395,19.959316,37.590637,54.530708,35.771805,8.193407,33.863960,49.553570,35.964027,28.716520
65,0,-71.830826,148.167267,-5.807171,-23.103653,81.028687,58.636356,-114.597832,82.263718,2.262254,19.932846,37.617107,54.534836,35.750656,8.207675,33.851913,49.487946,35.986809,28.697109
66,0,-71.829048,148.193359,-5.819763,-23.106344,81.046761,58.611050,-114.548828,83.095619,2.251637,19.911520,37.633659,54.523010,35.734180,8.296293,33.975044,49.438660,36.127987,28.811649
67,0,-71.825821,148.258469,-5.828746,-23.125872,81.061966,58.610596,-114.625740,82.426193,2.222816,19.896345,37.633823,54.526638,35.705391,8.220604,33.856068,49.428917,35.997612,28.676003
68,0,-71.773148,148.293991,-5.851983,-23.128946,81.082787,58.606663,-114.625740,82.426193,2.222816,19.883459,37.628094,54.507690,35.680286,8.207083,33.860462,49.431252,35.960102,28.683546
69,0,-71.780251,148.310715,-5.899127,-23.159950,81.072418,58.601959,-114.617508,82.529480,2.165932,19.820724,37.628319,54.523300,35.660778,8.236520,33.877506,49.409195,35.970577,28.690647
70,0,-71.782745,148.341980,-5.894153,-23.180445,81.039818,58.584454,-114.682846,82.471619,2.169605,19.796412,37.603935,54.512180,35.652557,8.298222,34.017223,49.329582,36.081024,28.838993
71,0,-71.776268,148.342850,-5.883545,-23.218187,81.014519,58.579365,-114.682617,82.456520,2.126744,19.762714,37.576672,54.521111,35.596451,8.205408,33.890884,49.330898,35.930569,28.717699
72,0,-71.816116,148.377304,-5.821402,-23.250313,81.048378,58.592964,-114.722771,82.529167,2.117836,19.740543,37.587868,54.505287,35.606556,8.302342,34.001713,49.259415,36.059097,28.828794
73,0,-71.864288,148.373123,-5.845151,-23.250408,81.060944,58.598537,-114.757347,82.515953,2.137477,19.729738,37.607121,54.494522,35.597164,8.219495,33.892323,49.302567,35.914948,28.726376
74,0,-71.902802,148.429459,-5.834517,-23.198606,81.070602,58.604942,-114.768936,82.499886,2.203605,19.761719,37.623768,54.500237,35.600410,8.263345,33.878445,49.273888,35.929008,28.704887
75,0,-71.914734,148.457077,-5.842229,-23.184492,81.137367,58.594234,-114.811653,82.540939,2.190038,19.773487,37.670128,54.466507,35.627716,8.280083,33.899544,49.289028,35.920578,28.708010
76,0,-71.908768,148.439346,-5.920515,-23.163515,81.175888,58.587112,-114.804298,82.452393,2.295731,19.805952,37.709747,54.461933,35.594223,8.322601,33.872841,49.301258,35.969292,28.685339
77,0,-71.921623,148.416702,-5.980946,-23.159359,81.209801,58.571297,-114.759491,82.569878,2.266687,19.814573,37.746784,54.449852,35.642517,8.397338,33.980106,49.248497,36.129387,28.790928
78,0,-71.886711,148.422806,-5.998675,-23.150648,81.222099,58.563931,-114.763657,82.513153,2.227551,19.828337,37.745060,54.456734,35.606922,8.325493,33.851963,49.307922,35.980759,28.678219
79,0,-71.912888,148.381561,-6.115487,-23.177439,81.213165,58.530079,-114.725754,83.319641,2.245775,19.809458,37.750061,54.442642,35.623577,8.310458,33.852680,49.310116,35.945461,28.698183
80,0,-71.887978,148.322357,-6.148763,-23.211519,81.207626,58.535732,-114.764839,82.522263,2.137256,19.785585,37.718964,54.452278,35.589062,8.235942,33.878132,49.289898,35.933144,28.700272
81,0,-71.881912,148.305374,-6.226907,-23.262819,81.118706,58.494755,-114.711914,83.432373,1.992697,19.710497,37.694744,54.477131,35.577724,8.251845,33.891342,49.281178,35.883007,28.732849
82,0,-71.928528,148.269257,-6.229712,-23.329504,81.066154,58.522423,-114.749352,83.414581,1.877080,19.694035,37.627598,54.491673,35.581245,8.300765,33.997166,49.214119,36.030468,28.836994
83,0,-71.926735,148.256851,-6.268834,-23.373732,81.056107,58.447113,-114.787323,82.466560,1.842838,19.632568,37.606533,54.501709,35.560387,8.243249,34.012825,49.201382,35.981716,28.847860
84,0,-71.892647,148.209564,-6.271137,-23.398958,81.012032,58.466949,-114.773445,82.473007,1.804479,19.592033,37.559772,54.500683,35.507256,8.187352,33.885910,49.224632,35.823658,28.750019
85,0,-71.899124,148.239883,-6.272197,-23.429573,80.987961,58.497452,-114.732689,83.337265,1.819214,19.586809,37.548321,54.510880,35.509724,8.178181,33.901287,49.191795,35.828144,28.768343
86,0,-71.878990,148.274918,-6.233472,-23.409315,81.014084,58.525600,-114.768692,83.465034,1.826623,19.588720,37.542805,54.520527,35.482986,8.215460,33.903324,49.206028,35.803898,28.789993
87,0,-71.887344,148.322357,-6.149016,-23.366838,81.047150,58.530216,-114.804031,83.364670,1.931387,19.602449,37.574421,54.513924,35.522705,8.282885,34.029900,49.145065,35.967525,28.881674
88,0,-71.890488,148.352768,-6.143507,-23.354189,81.085228,58.534027,-114.816826,83.429405,1.995621,19.657570,37.616661,54.496490,35.537880,8.215980,33.934631,49.214172,35.817688,28.790266
89,0,-71.928398,148.355286,-6.112499,-23.262936,81.149780,58.567131,-114.799484,83.507156,2.091743,19.681675,37.644135,54.481392,35.533539,8.259072,33.886322,49.193893,35.854282,28.736393
90,0,-71.942329,148.432739,-6.040107,-23.231880,81.160782,58.594654,-114.893456,82.672058,2.217458,19.713886,37.699692,54.491039,35.584148,8.310578,34.025356,49.178356,36.045113,28.860044
91,0,-71.951660,148.435562,-5.988661,-23.184475,81.179337,58.626362,-114.876518,82.636528,2.333349,19.743818,37.704803,54.482315,35.590927,8.337634,34.018913,49.186306,36.044582,28.863834
92,0,-71.926018,148.453751,-5.933470,-23.197186,81.179291,58.656452,-114.908356,82.653542,2.360312,19.792358,37.691658,54.473057,35.555870,8.288666,33.881622,49.228802,35.919109,28.718351
93,0,-71.932892,148.462448,-5.923429,-23.175055,81.179817,58.644955,-114.891899,82.611191,2.409282,19.784180,37.686176,54.484123,35.597721,8.338549,34.025673,49.190987,36.065273,28.848854
94,0,-71.922379,148.466110,-5.909138,-23.165981,81.143135,58.665855,-114.889252,82.599167,2.405301,19.782095,37.666031,54.492477,35.585701,8.242683,33.885815,49.241318,35.907223,28.734861
95,0,-71.918594,148.444901,-5.867929,-23.193617,81.136116,58.667923,-114.889923,82.588997,2.394943,19.793467,37.660576,54.500370,35.584026,8.303041,34.017361,49.220894,36.086220,28.816549
96,0,-71.915443,148.434601,-5.906408,-23.201452,81.087227,58.678307,-114.886299,82.588890,2.350883,19.756121,37.649746,54.507744,35.563862,8.211689,33.890354,49.255337,35.936344,28.703266
97,0,-71.905533,148.438599,-5.893326,-23.211550,81.068512,58.701859,-114.879448,82.575485,2.324145,19.760679,37.580875,54.525146,35.580013,8.186025,33.911453,49.280918,35.940269,28.703939
98,0,-71.920296,148.428070,-5.858165,-23.260708,81.039604,58.700634,-114.898956,82.613983,2.272016,19.736267,37.563480,54.548985,35.563496,8.221128,33.896065,49.276798,35.936741,28.702328
99,0,-71.928207,148.410690,-5.838756,-23.248856,81.025276,58.721855,-114.906219,82.569168,2.277443,19.730927,37.578602,54.561295,35.561371,8.210151,33.913277,49.291729,35.949795,28.706631
100,0,-71.959618,148.404617,-5.794044,-23.254480,81.028282,58.731075,-114.880699,82.522400,2.314417,19.727299,37.567280,54.549068,35.576199,8.199080,33.918152,49.290241,35.958344,28.714499
101,0,-71.970703,148.411545,-5.711189,-23.257948,81.028137,58.736099,-114.930840,82.486206,2.369466,19.795815,37.608555,54.566360,35.579136,8.195457,33.926105,49.291393,35.974968,28.716166
102,0,-72.028320,148.409805,-5.681209,-23.210247,81.073776,58.759838,-114.985016,82.482231,2.424593,19.810482,37.624443,54.542870,35.581100,8.234278,33.891415,49.294411,35.992439,28.693975
103,0,-72.043907,148.393997,-5.644899,-23.187420,81.079941,58.782551,-114.960762,82.501587,2.506999,19.820511,37.663559,54.516415,35.582508,8.270862,33.881039,49.281693,35.996403,28.683416
104,0,-72.102898,148.450989,-5.622023,-23.172791,81.103554,58.784580,-114.964119,82.397545,2.490444,19.846720,37.687439,54.522736,35.583031,8.288096,33.876930,49.269379,35.998947,28.688538
105,0,-72.136719,148.451752,-5.624590,-23.137175,81.102852,58.792667,-114.958389,82.427933,2.575851,19.863295,37.696907,54.520382,35.619064,8.289393,33.878063,49.302555,35.990021,28.684633
106,0,-72.172775,148.427628,-5.595871,-23.135798,81.115715,58.798477,-114.961761,82.388893,2.581798,19.879578,37.735748,54.495632,35.627270,8.289338,33.876183,49.290821,35.984642,28.690708
107,0,-72.191971,148.400299,-5.611258,-23.165405,81.119148,58.780960,-114.984001,82.333206,2.591925,19.867170,37.727398,54.489712,35.621738,8.311083,33.883900,49.287464,35.989819,28.703686
108,0,-72.250427,148.420883,-5.615868,-23.198711,81.130310,58.770081,-115.038689,82.380157,2.534964,19.832096,37.723354,54.473801,35.568111,8.315202,33.851280,49.216747,35.986149,28.698153
109,0,-72.262039,148.375107,-5.590693,-23.198967,81.105057,58.772373,-115.069229,82.269966,2.508108,19.811792,37.698395,54.475502,35.571442,8.319387,33.843884,49.191357,35.963520,28.693258
110,0,-72.309738,148.328705,-5.590164,-23.278536,81.091064,58.761757,-115.130211,82.303345,2.468687,19.785093,37.684193,54.476341,35.554672,8.318489,33.839073,49.143955,35.942814,28.713282
111,0,-72.357002,148.369354,-5.563539,-23.267281,81.061394,58.760105,-115.132591,82.304184,2.482965,19.737740,37.742626,54.442303,35.530296,8.305840,33.859432,49.113495,35.909565,28.735252
112,0,-72.354698,148.360489,-5.547260,-23.284170,81.094711,58.741283,-115.161354,82.241714,2.500725,19.724033,37.726826,54.464664,35.550903,8.312445,33.843193,49.066177,35.902454,28.732708
113,0,-72.399651,148.344345,-5.590786,-23.279476,81.089409,58.727020,-115.156967,82.255241,2.484463,19.745134,37.732506,54.472172,35.538555,8.296634,33.869263,49.080090,35.888561,28.719818
114,0,-72.395409,148.343491,-5.561997,-23.250591,81.084145,58.723625,-115.156975,82.229492,2.473856,19.763670,37.717659,54.448711,35.554123,8.304501,33.866135,49.083885,35.915565,28.726973
115,0,-72.405609,148.360260,-5.511744,-23.233862,81.079613,58.724720,-115.138496,82.224472,2.528875,19.778177,37.699074,54.470741,35.567589,8.306551,33.858513,49.130962,35.951454,28.730354
116,0,-72.391335,148.364059,-5.489983,-23.229502,81.065636,58.725391,-115.114616,82.268845,2.538503,19.807343,37.702110,54.481312,35.588825,8.266990,33.877354,49.149231,35.938717,28.714235
117,0,-72.393715,148.340546,-5.482697,-23.202059,81.077126,58.746891,-115.122025,82.277390,2.604954,19.797899,37.706455,54.473969,35.582779,8.297883,33.861507,49.177814,35.937687,28.702095
118,0,-72.395706,148.322464,-5.471546,-23.198847,81.087959,58.759109,-115.127045,82.239891,2.606508,19.832664,37.705341,54.480988,35.615364,8.266706,33.888454,49.168465,35.975056,28.711250
119,0,-72.390053,148.334076,-5.420022,-23.165352,81.064323,58.797466,-115.129974,82.197243,2.610888,19.853144,37.703411,54.484409,35.606289,8.260379,33.878979,49.230652,35.959557,28.710484
120,0,-72.399399,148.329102,-5.433043,-23.156309,81.055496,58.806053,-115.109657,82.186981,2.662308,19.882418,37.681419,54.517933,35.661385,8.341667,34.012527,49.199715,36.108940,28.806538
121,0,-72.399078,148.314316,-5.375912,-23.135630,81.033569,58.803951,-115.088760,82.155975,2.717053,19.898226,37.659832,54.521175,35.650829,8.247980,33.900658,49.270996,35.992310,28.704727
122,0,-72.397644,148.356979,-5.345016,-23.117373,81.009857,58.842293,-115.079399,82.208672,2.699874,19.886105,37.634693,54.544891,35.675076,8.225101,33.924805,49.290356,35.975334,28.708910
123,0,-72.414909,148.347183,-5.300223,-23.074139,80.974411,58.873108,-115.062180,82.192749,2.766712,19.934467,37.628819,54.541836,35.675823,8.204800,33.901978,49.289471,35.960911,28.687471
124,0,-72.378258,148.337692,-5.264439,-23.031727,81.011620,58.892040,-115.036026,82.224602,2.783360,19.976995,37.651360,54.573288,35.732258,8.296994,34.016769,49.322556,36.114082,28.851982
125,0,-72.414398,148.375015,-5.212127,-23.002748,81.012939,58.934448,-115.018845,82.223282,2.905982,20.020132,37.650196,54.569847,35.712452,8.220692,33.914135,49.380974,35.987572,28.724169
126,0,-72.375267,148.366608,-5.150255,-22.942961,81.027863,58.962452,-114.981110,82.268951,2.934550,20.075745,37.656700,54.577850,35.734062,8.254936,33.925274,49.406750,35.968952,28.740461
127,0,-72.378510,148.376785,-5.054169,-22.885759,81.002296,59.022312,-115.058105,82.222778,2.987150,20.110224,37.675846,54.572964,35.762844,8.225908,33.905930,49.437069,35.937904,28.759909
128,0,-72.409248,148.410019,-4.978662,-22.867662,81.006935,59.046650,-114.989922,82.212845,3.090084,20.115263,37.686150,54.570049,35.779022,8.227251,33.897030,49.457325,35.933521,28.769262
129,0,-72.420921,148.465179,-4.901440,-22.842621,81.041267,59.084663,-115.049416,82.318672,3.235148,20.191137,37.680000,54.601269,35.787136,8.257771,33.916279,49.464451,35.960915,28.766306
130,0,-72.406326,148.487350,-4.814591,-22.749617,81.053352,59.115871,-115.029587,82.293701,3.352733,20.239214,37.706429,54.591412,35.790348,8.254806,33.914341,49.474804,35.957195,28.764650
131,0,-72.417709,148.535614,-4.759259,-22.712908,81.072701,59.138802,-115.027313,82.434891,3.431583,20.293247,37.736980,54.572708,35.817459,8.311698,33.889248,49.496410,35.976486,28.764418
132,0,-72.460434,148.578506,-4.657924,-22.662258,81.111633,59.148525,-115.031189,82.411110,3.448566,20.324902,37.747688,54.578861,35.852104,8.282518,33.887840,49.452538,35.941399,28.749483
133,0,-72.407288,148.579422,-4.643791,-22.633392,81.137466,59.147476,-115.004929,82.392860,3.534845,20.364244,37.752857,54.564651,35.842899,8.344317,33.891270,49.511055,35.933765,28.749987
134,0,-72.464615,148.628952,-4.611999,-22.628094,81.173508,59.149063,-115.028564,82.566338,3.591607,20.401701,37.796303,54.550091,35.854851,8.350122,33.896160,49.541183,35.908161,28.773359
135,0,-72.446594,148.644058,-4.564602,-22.569988,81.174820,59.201111,-114.982147,82.534721,3.678200,20.416058,37.795483,54.569321,35.889576,8.372279,33.915646,49.550713,35.902771,28.793978
136,0,-72.461418,148.656952,-4.504361,-22.534632,81.189552,59.190887,-115.012238,82.511009,3.659311,20.419136,37.808620,54.566887,35.865906,8.363675,33.903164,49.523087,35.921764,28.812105
137,0,-72.462074,148.656998,-4.502340,-22.548262,81.193687,59.163273,-114.973534,82.548515,3.682779,20.442739,37.836845,54.559582,35.887352,8.406918,33.891258,49.513008,35.886303,28.794865
138,0,-72.486984,148.650040,-4.456810,-22.536150,81.197563,59.151161,-115.012489,82.494431,3.675805,20.418634,37.836216,54.547115,35.895100,8.390085,33.863720,49.512688,35.843807,28.804754
139,0,-72.457970,148.655380,-4.415991,-22.544928,81.188469,59.154629,-115.003166,82.510483,3.676744,20.427578,37.824520,54.549137,35.904354,8.393508,33.884605,49.501789,35.857952,28.795820
140,0,-72.499664,148.648743,-4.386298,-22.544054,81.180733,59.147755,-115.015327,82.521156,3.704528,20.419462,37.835289,54.517799,35.883198,8.408791,33.875145,49.511726,35.828110,28.822462
141,0,-72.530434,148.649750,-4.386530,-22.547438,81.192642,59.148087,-115.012131,82.534088,3.707989,20.420969,37.834282,54.529911,35.908760,8.390038,33.879925,49.453972,35.827728,28.801136
142,0,-72.473549,148.637711,-4.365587,-22.531557,81.189606,59.132107,-115.019417,82.528122,3.741871,20.438948,37.839832,54.519596,35.905582,8.384142,33.876141,49.494694,35.788273,28.816792
143,0,-72.547874,148.634537,-4.378886,-22.514820,81.191208,59.141895,-115.019142,82.500168,3.752595,20.426546,37.844910,54.513489,35.897537,8.406581,33.866150,49.450520,35.778934,28.842258
144,0,-72.541901,148.642700,-4.325023,-22.535975,81.183876,59.151299,-115.018684,82.549744,3.776512,20.451195,37.832947,54.528225,35.928761,8.382711,33.883965,49.492702,35.750633,28.852858
145,0,-72.523018,148.616516,-4.305890,-22.508673,81.180496,59.137634,-115.020493,82.552864,3.779486,20.474695,37.859821,54.533283,35.933903,8.377923,33.899891,49.573944,35.728382,28.850262
146,0,-72.490379,148.609344,-4.273658,-22.493361,81.162880,59.145218,-115.041641,82.580338,3.823851,20.489176,37.847469,54.538918,35.929153,8.406011,33.881870,49.551804,35.727379,28.877064
147,0,-72.489670,148.608948,-4.272393,-22.489914,81.175011,59.157406,-115.002419,82.472191,3.835895,20.515448,37.842125,54.545609,35.927742,8.426757,33.890461,49.574657,35.716568,28.870125
148,0,-72.490250,148.617905,-4.207374,-22.489103,81.147789,59.147217,-114.998421,82.520744,3.836770,20.523518,37.857166,54.549294,35.917313,8.426981,33.870861,49.554352,35.715015,28.889128
149,0,-72.528633,148.610977,-4.217741,-22.488592,81.166779,59.147354,-115.038872,82.633034,3.832746,20.508488,37.855480,54.521950,35.945599,8.399014,33.870033,49.506100,35.708187,28.864212
150,0,-72.502083,148.631104,-4.184870,-22.493690,81.150627,59.139553,-115.028984,83.277557,4.044312,20.502874,37.856625,54.518169,35.948956,8.407228,33.890007,49.482250,35.714218,28.862122
151,0,-72.541870,148.636948,-4.125347,-22.498529,81.147873,59.150261,-115.029991,83.318192,4.075502,20.501635,37.834415,54.540691,35.937378,8.407593,33.890446,49.555489,35.693428,28.900482
152,0,-72.535759,148.646759,-4.073900,-22.506790,81.135338,59.161053,-115.083717,82.729614,3.945107,20.508142,37.844788,54.534363,35.928085,8.416324,33.870388,49.478489,35.717754,28.875750
153,0,-72.525688,148.655518,-4.035794,-22.490833,81.147949,59.149979,-115.101677,82.693344,3.998495,20.520575,37.870819,54.529137,35.943504,8.407219,33.881371,49.463196,35.686367,28.883802
154,0,-72.540985,148.693787,-4.029054,-22.488741,81.156654,59.162300,-115.113327,82.776688,4.042269,20.513418,37.875854,54.538952,35.940613,8.416495,33.872211,49.499626,35.670250,28.868044
155,0,-72.530968,148.715561,-3.928130,-22.474844,81.145798,59.151661,-115.087349,83.394058,4.158801,20.516314,37.875278,54.534351,35.939308,8.408967,33.869663,49.502384,35.645168,28.911062
156,0,-72.566208,148.710953,-3.911040,-22.452278,81.172905,59.205624,-115.128059,82.761864,4.125262,20.519962,37.880043,54.529793,35.932354,8.434978,33.882492,49.495335,35.638668,28.955067
157,0,-72.571281,148.726654,-3.830034,-22.456726,81.190872,59.193188,-115.067596,83.474625,4.215528,20.551674,37.910908,54.523991,35.955956,8.413975,33.867519,49.444679,35.613594,28.975569
158,0,-72.552765,148.762283,-3.814104,-22.433479,81.164200,59.239273,-115.098427,82.831688,4.121035,20.561945,37.880692,54.525089,35.947235,8.438964,33.858650,49.539207,35.576313,29.003637
159,0,-72.601242,148.725037,-3.770956,-22.427677,81.167839,59.249996,-115.084785,82.833038,4.222684,20.569290,37.891731,54.514648,35.952488,8.436486,33.853382,49.484138,35.575661,28.987858
160,0,-72.602974,148.734329,-3.732606,-22.426758,81.138817,59.264790,-115.088615,82.804474,4.234659,20.577978,37.875134,54.520046,35.983189,8.443126,33.871616,49.521782,35.587711,29.005199
161,0,-72.641891,148.728409,-3.642166,-22.425203,81.146187,59.290668,-115.117119,83.356522,4.433411,20.580856,37.867168,54.530205,35.961689,8.481055,33.875011,49.473576,35.568455,28.986622
162,0,-72.644447,148.734558,-3.604872,-22.416254,81.131660,59.317482,-115.134621,82.797157,4.304174,20.619053,37.885292,54.545013,35.989178,8.453603,33.872612,49.494091,35.566223,29.011669
163,0,-72.681160,148.679520,-3.584119,-22.420130,81.106445,59.350010,-115.130196,82.728561,4.401278,20.602894,37.882954,54.542896,36.022564,8.449245,33.884308,49.470047,35.536724,28.990536
164,0,-72.693146,148.686035,-3.558110,-22.415636,81.109238,59.355072,-115.155380,82.753365,4.357249,20.627808,37.911495,54.525509,36.005680,8.480336,33.888885,49.493797,35.551834,29.013666
165,0,-72.728752,148.695312,-3.546414,-22.407501,81.122673,59.372910,-115.155098,82.754639,4.356332,20.644991,37.888073,54.546432,35.985039,8.498365,33.868641,49.550137,35.542831,29.051985
166,0,-72.737282,148.673203,-3.523602,-22.415953,81.125076,59.372147,-115.148628,82.766998,4.339359,20.659866,37.890842,54.540359,36.013596,8.478466,33.871834,49.463913,35.544830,29.044271
167,0,-72.741936,148.682922,-3.511802,-22.424091,81.115639,59.382626,-115.173538,82.688560,4.346487,20.662258,37.883755,54.549252,36.016548,8.463284,33.877037,49.481926,35.526791,29.054937
168,0,-72.773170,148.647415,-3.472577,-22.408020,81.106857,59.379234,-115.180000,82.646523,4.338020,20.648983,37.888512,54.545673,36.014587,8.475785,33.887577,49.479378,35.526188,29.078688
169,0,-72.741905,148.653702,-3.445940,-22.424660,81.089417,59.386150,-115.212318,82.639084,4.358004,20.655739,37.885715,54.552891,36.000618,8.494548,33.860699,49.471096,35.474411,29.057180
170,0,-72.790741,148.640671,-3.422936,-22.424055,81.073448,59.412884,-115.212410,82.622871,4.350916,20.671917,37.897713,54.540504,36.016796,8.475130,33.861916,49.458473,35.454990,29.063040
171,0,-72.817505,148.625458,-3.402349,-22.422436,81.073456,59.412735,-115.213585,82.602127,4.350627,20.667116,37.899807,54.537022,36.019440,8.488516,33.891472,49.452137,35.468685,29.092497
172,0,-72.800888,148.607193,-3.369317,-22.413374,81.036102,59.424969,-115.213478,82.549797,4.320846,20.691067,37.875427,54.548504,36.054878,8.472383,33.914284,49.404308,35.462105,29.080633
173,0,-72.831558,148.591736,-3.364144,-22.412104,81.056511,59.450310,-115.175194,82.491798,4.361073,20.670506,37.897091,54.540619,36.036087,8.465289,33.875027,49.403503,35.441296,29.077908
174,0,-72.872131,148.587250,-3.379105,-22.418915,81.060318,59.396156,-115.216263,82.436470,4.301560,20.679977,37.896770,54.524715,36.044308,8.502742,33.887573,49.421730,35.418163,29.080938
175,0,-72.825874,148.568420,-3.438865,-22.434952,81.076271,59.397144,-115.220863,82.400177,4.264309,20.687588,37.909779,54.520515,36.018703,8.515771,33.872658,49.381985,35.421783,29.073841
176,0,-72.852753,148.561798,-3.454166,-22.418280,81.060745,59.396095,-115.171219,82.304298,4.223910,20.695938,37.909782,54.537598,36.040524,8.468411,33.874775,49.355713,35.370796,29.091591
177,0,-72.849930,148.554306,-3.489798,-22.430208,81.065331,59.371517,-115.194740,82.332832,4.188925,20.696545,37.872009,54.522018,36.006767,8.505881,33.863281,49.330154,35.338806,29.094622
178,0,-72.857727,148.551239,-3.503660,-22.434891,81.037743,59.353733,-115.156731,82.243683,4.176028,20.677237,37.906830,54.529026,36.066555,8.550905,33.989109,49.250023,35.476910,29.219553
179,0,-72.915482,148.544525,-3.516873,-22.477829,81.043861,59.353405,-115.164902,82.259125,4.078632,20.672552,37.894333,54.523804,36.016918,8.506663,33.884666,49.283379,35.326553,29.117844
180,0,-72.912811,148.513580,-3.520705,-22.503178,81.027657,59.365921,-115.193748,82.193588,4.050607,20.675097,37.880054,54.524803,36.025494,8.527211,33.899979,49.281021,35.290390,29.131729
181,0,-72.903557,148.498413,-3.528456,-22.510241,80.984955,59.368317,-115.195114,82.212135,4.045607,20.622860,37.888111,54.536644,36.011406,8.503926,33.888256,49.266579,35.277782,29.129045
182,0,-72.912720,148.514069,-3.522457,-22.512476,80.992798,59.391384,-115.181160,82.117027,4.020781,20.644531,37.874741,54.537148,36.058765,8.542286,34.006157,49.219250,35.397720,29.234522
183,0,-72.887222,148.459213,-3.510799,-22.524143,80.986885,59.395340,-115.181305,82.113014,4.027768,20.649376,37.875984,54.565605,36.033783,8.501979,33.886597,49.261963,35.264214,29.142498
184,0,-72.935616,148.446136,-3.596678,-22.525995,81.020660,59.385258,-115.174660,82.153069,4.032927,20.657963,37.871346,54.547428,36.016399,8.535390,33.913338,49.271809,35.256363,29.150892
185,0,-72.928375,148.438080,-3.605872,-22.529844,80.997986,59.375626,-115.133614,82.051460,4.002144,20.645201,37.892284,54.538227,36.027222,8.467374,33.870163,49.239555,35.262085,29.121477
186,0,-72.885735,148.444016,-3.618432,-22.526030,80.982590,59.366711,-115.148743,82.080162,3.920275,20.644506,37.898632,54.525814,36.015949,8.474138,33.850002,49.234921,35.247566,29.144661
187,0,-72.923775,148.427017,-3.624301,-22.528992,80.966187,59.387676,-115.147987,82.061241,3.903613,20.599333,37.888470,54.539066,36.017063,8.495659,33.885063,49.232414,35.206760,29.174911
188,0,-72.923157,148.427704,-3.623698,-22.529305,80.952454,59.380001,-115.118523,82.050537,3.910524,20.622194,37.821056,54.563503,36.033951,8.480602,33.891495,49.205925,35.179913,29.181543
189,0,-72.892029,148.413666,-3.634398,-22.539557,80.949562,59.384830,-115.099693,81.975197,3.843203,20.605949,37.832436,54.559013,36.024464,8.462002,33.882023,49.205814,35.158974,29.184034
190,0,-72.889366,148.432510,-3.645657,-22.546509,80.935448,59.377445,-115.120430,82.008781,3.804370,20.599262,37.823784,54.558514,36.034267,8.529362,33.916344,49.167213,35.108459,29.228291
191,0,-72.914299,148.375198,-3.679421,-22.567562,80.945168,59.361549,-115.088013,81.950043,3.792589,20.589312,37.837704,54.553795,36.019547,8.513021,33.893372,49.156433,35.103107,29.206244
192,0,-72.946907,148.392166,-3.666068,-22.570852,80.902306,59.348583,-115.143456,81.952873,3.789511,20.581852,37.834435,54.553768,36.035572,8.585476,33.986599,49.094517,35.243176,29.293665
193,0,-72.930069,148.396500,-3.639571,-22.604670,80.939056,59.347710,-115.074760,81.816109,3.813464,20.590502,37.831032,54.560921,36.049572,8.570206,34.030537,49.107941,35.207893,29.329849
194,0,-72.936478,148.402832,-3.628306,-22.592361,80.901970,59.374935,-115.125206,81.880066,3.771743,20.584652,37.822308,54.560528,36.045826,8.543387,34.006668,49.034279,35.191555,29.339167
195,0,-72.973564,148.411850,-3.617497,-22.604259,80.933212,59.401203,-115.178329,81.934486,3.798392,20.578020,37.826080,54.553307,36.016964,8.550338,33.983440,48.976555,35.165081,29.362976
196,0,-72.954041,148.457901,-3.560960,-22.605749,80.922562,59.399521,-115.166824,82.004486,3.768927,20.537800,37.833862,54.564823,35.996662,8.603420,33.977962,48.913071,35.191021,29.301805
197,0,-72.981392,148.458740,-3.532549,-22.620714,80.936264,59.404583,-115.152855,81.994339,3.814503,20.541571,37.858749,54.543762,35.995213,8.590307,33.977619,48.934731,35.197590,29.303764
198,0,-72.958588,148.496094,-3.514394,-22.631498,80.915489,59.416286,-115.177559,81.994492,3.847386,20.520613,37.857990,54.545635,36.000820,8.591314,33.992382,48.928989,35.177448,29.336969
199,0,-72.977074,148.501434,-3.517717,-22.627378,80.949516,59.399006,-115.176567,82.032257,3.852737,20.510220,37.851360,54.558418,35.958286,8.527064,33.845615,48.959702,35.066689,29.218128
200,0,-72.983421,148.502884,-3.530509,-22.632154,80.954941,59.395012,-115.181709,81.956718,3.815126,20.496519,37.864143,54.523300,35.979900,8.618436,33.942677,48.912201,35.233521,29.278370
201,0,-72.992165,148.466232,-3.522135,-22.670069,80.924911,59.398659,-115.215858,82.024170,3.848401,20.468693,37.834339,54.515770,35.972210,8.616155,33.973469,48.937260,35.239311,29.284082
202,0,-73.003212,148.460983,-3.537163,-22.701334,80.914932,59.374119,-115.191261,81.913139,3.764090,20.451506,37.836472,54.523026,35.963554,8.605304,33.954239,48.934490,35.244778,29.274303
203,0,-73.034561,148.479858,-3.544573,-22.703363,80.892960,59.395298,-115.190399,81.917915,3.761426,20.418306,37.824497,54.532093,35.953812,8.568192,33.961582,48.930176,35.242218,29.272665
204,0,-73.064323,148.482162,-3.545990,-22.738291,80.896660,59.387188,-115.212868,81.849701,3.701498,20.387857,37.824997,54.547134,35.954391,8.564137,33.961693,48.996490,35.262558,29.301022
205,0,-73.097305,148.420776,-3.591764,-22.775526,80.887604,59.400452,-115.238617,81.852745,3.653731,20.358929,37.819538,54.547615,35.925369,8.591399,33.960052,48.933064,35.266460,29.247795
206,0,-73.100166,148.419876,-3.596777,-22.817411,80.848923,59.400951,-115.237823,81.815414,3.635453,20.332521,37.798100,54.551842,35.931370,8.578261,33.973179,48.942696,35.255264,29.258570
207,0,-73.084053,148.423737,-3.570396,-22.817635,80.844086,59.421017,-115.245049,81.802025,3.626655,20.307493,37.741100,54.581245,35.906857,8.569640,33.971931,48.889648,35.238285,29.287308
208,0,-73.129837,148.395813,-3.554140,-22.849194,80.807945,59.424862,-115.296440,81.787247,3.591522,20.311975,37.735992,54.586884,35.906555,8.549244,33.956032,48.892677,35.226364,29.283175
209,0,-73.136139,148.370224,-3.508243,-22.833862,80.788063,59.453571,-115.225204,81.662354,3.617845,20.309652,37.735386,54.587421,35.922443,8.557331,33.970470,48.860382,35.236217,29.271671
210,0,-73.135536,148.382523,-3.509148,-22.836624,80.802444,59.444138,-115.232941,81.644684,3.639912,20.315193,37.734169,54.591137,35.912453,8.573659,33.977455,48.825390,35.243881,29.245533
211,0,-73.132942,148.353760,-3.511459,-22.820585,80.786613,59.466709,-115.249619,81.711540,3.642115,20.321896,37.732475,54.593975,35.925152,8.578425,33.968987,48.776802,35.243946,29.259151
212,0,-73.151535,148.367203,-3.475315,-22.792263,80.798729,59.493107,-115.244400,81.730476,3.675310,20.326878,37.764549,54.586651,35.931087,8.578896,33.958050,48.803249,35.225304,29.261593
213,0,-73.149521,148.383591,-3.486578,-22.793900,80.797531,59.493416,-115.268524,81.673874,3.672810,20.347893,37.759815,54.588100,35.929001,8.576928,33.981537,48.786068,35.210049,29.248192
214,0,-73.162025,148.359573,-3.489030,-22.774702,80.812889,59.522148,-115.202072,81.723633,3.673523,20.350946,37.758598,54.591114,35.944893,8.577476,34.002388,48.782608,35.225655,29.209808
215,0,-73.192596,148.361664,-3.491457,-22.786142,80.809822,59.488899,-115.239548,81.747101,3.671813,20.351929,37.771477,54.575504,35.918552,8.625673,33.965958,48.768425,35.232399,29.204250
216,0,-73.191902,148.360611,-3.489486,-22.772036,80.824585,59.494869,-115.248894,81.620705,3.725207,20.342529,37.783375,54.576794,35.933819,8.596973,33.979324,48.755962,35.239986,29.192499
217,0,-73.207527,148.357025,-3.514316,-22.785728,80.834290,59.478745,-115.270668,81.688690,3.687192,20.327003,37.783600,54.575439,35.919323,8.593587,33.965786,48.773129,35.220413,29.227652
218,0,-73.191803,148.360626,-3.490421,-22.805058,80.810173,59.483776,-115.277130,81.670837,3.658797,20.328669,37.790062,54.568218,35.912487,8.630854,33.970921,48.782761,35.234188,29.265047
219,0,-73.255203,148.368332,-3.519096,-22.791523,80.799644,59.491341,-115.273392,81.656281,3.643539,20.325541,37.773777,54.578255,35.928749,8.607856,33.985477,48.802345,35.230553,29.236675
220,0,-73.269051,148.365585,-3.519564,-22.807003,80.801323,59.491665,-115.276215,81.684311,3.659471,20.328712,37.767422,54.585506,35.905453,8.632923,33.966545,48.766273,35.270435,29.233709
221,0,-73.275597,148.295898,-3.518921,-22.806044,80.802811,59.491951,-115.251328,81.638573,3.688210,20.329069,37.766754,54.587364,35.910885,8.620260,33.973923,48.807381,35.247116,29.243078
222,0,-73.296989,148.325165,-3.491188,-22.801277,80.812714,59.488541,-115.254822,81.615524,3.700023,20.347008,37.758972,54.594463,35.936443,8.625441,33.966385,48.754585,35.276379,29.189222
223,0,-73.309006,148.330109,-3.467696,-22.806744,80.801399,59.491341,-115.252708,81.652504,3.746215,20.342268,37.773323,54.576347,35.921276,8.602311,33.971249,48.811699,35.273617,29.195793
224,0,-73.324158,148.315948,-3.532701,-22.774462,80.833054,59.509834,-115.290649,81.745499,3.722460,20.353163,37.765884,54.583408,35.929974,8.606074,33.973068,48.822906,35.280174,29.178894
225,0,-73.323395,148.315613,-3.530742,-22.782661,80.853539,59.509315,-115.293823,81.707970,3.717940,20.361048,37.792435,54.589069,35.947025,8.612708,33.956589,48.830532,35.273621,29.172438
226,0,-73.327194,148.345901,-3.525490,-22.781866,80.853874,59.508167,-115.289978,81.727493,3.711062,20.373245,37.832249,54.572250,35.945992,8.609812,33.956642,48.837185,35.273071,29.167675
227,0,-73.333237,148.364502,-3.472852,-22.780630,80.843689,59.523975,-115.291397,81.737762,3.729359,20.360653,37.791508,54.594551,35.943474,8.631794,33.980087,48.872509,35.277187,29.184660
228,0,-73.321175,148.376022,-3.410997,-22.792166,80.853386,59.547531,-115.282089,81.682648,3.811694,20.333141,37.761822,54.594376,35.946835,8.631495,33.984367,48.888062,35.270592,29.181826
229,0,-73.317169,148.387589,-3.385988,-22.790716,80.848854,59.558601,-115.280449,81.693451,3.839099,20.374100,37.774746,54.615402,35.939407,8.622984,33.986481,48.904213,35.288082,29.175333
230,0,-73.307465,148.369339,-3.335216,-22.761145,80.825874,59.595886,-115.275391,81.734848,3.855531,20.356533,37.758686,54.626637,35.940277,8.644032,33.977093,48.905117,35.286236,29.194473
231,0,-73.350082,148.403809,-3.274302,-22.743923,80.791161,59.631908,-115.249664,81.746918,3.835940,20.370762,37.721107,54.645763,35.952545,8.611198,34.004681,48.832020,35.260815,29.213140
232,0,-73.361565,148.429031,-3.285289,-22.720980,80.823151,59.649414,-115.243103,81.719612,3.945232,20.359211,37.760822,54.624290,35.952152,8.604071,33.993465,48.867985,35.229923,29.207859
233,0,-73.315468,148.414551,-3.252939,-22.721025,80.834923,59.661201,-115.243668,81.773361,3.967204,20.413857,37.755341,54.631184,35.923004,8.576973,33.854939,48.916740,35.095299,29.129555
234,0,-73.321739,148.421432,-3.240653,-22.694256,80.833656,59.677002,-115.284370,81.839607,3.956687,20.419161,37.752205,54.635345,35.967125,8.650203,33.995068,48.812840,35.213642,29.225922
235,0,-73.310089,148.427872,-3.224889,-22.694910,80.833817,59.676510,-115.219078,81.708313,4.041062,20.428345,37.750317,54.633656,35.966442,8.641740,33.992435,48.817444,35.168278,29.284443
236,0,-73.336411,148.419998,-3.165295,-22.698256,80.842873,59.721920,-115.278404,81.799088,4.069993,20.429918,37.747421,54.626545,35.973186,8.668625,34.014091,48.790928,35.176197,29.250517
237,0,-73.345474,148.454361,-3.121068,-22.698294,80.851410,59.736160,-115.278534,81.767441,4.059811,20.449390,37.755882,54.641354,35.978752,8.670095,33.997635,48.833282,35.137054,29.300055
238,0,-73.345581,148.421219,-3.106741,-22.656328,80.852394,59.745701,-115.225883,81.849930,4.165198,20.464167,37.759068,54.655296,35.986362,8.658433,33.981705,48.815304,35.146336,29.278112
239,0,-73.382103,148.428558,-3.096399,-22.647070,80.876038,59.767399,-115.269051,81.773293,4.185644,20.478630,37.762131,54.683361,35.994968,8.658049,34.014828,48.838791,35.101662,29.322163
240,0,-73.357071,148.445801,-3.019070,-22.608450,80.856827,59.790203,-115.244621,81.843460,4.195582,20.505360,37.720928,54.662243,36.014080,8.659547,34.011967,48.834171,35.110302,29.296881
241,0,-73.344864,148.439255,-3.042545,-22.612747,80.860802,59.800819,-115.276489,81.939873,4.228868,20.483534,37.754116,54.645588,35.988144,8.720942,34.030022,48.808693,35.096962,29.296370
242,0,-73.373215,148.449326,-3.019531,-22.610928,80.844002,59.803383,-115.218437,81.819870,4.302179,20.496922,37.755424,54.671509,35.988907,8.663409,33.963917,48.807560,35.093590,29.305082
243,0,-73.391891,148.461136,-2.983677,-22.627539,80.847221,59.802010,-115.272812,81.915077,4.328486,20.480894,37.737907,54.667046,35.996525,8.661598,33.990376,48.812195,35.074516,29.308874
244,0,-73.374321,148.465393,-2.955673,-22.604368,80.844513,59.825848,-115.268501,81.918190,4.320561,20.500374,37.747066,54.683743,36.018265,8.629766,33.996082,48.836517,35.048527,29.335773
245,0,-73.346313,148.493515,-2.947006,-22.607924,80.853561,59.814133,-115.272118,81.903122,4.330063,20.504808,37.726212,54.648209,35.995392,8.648189,33.990417,48.862156,35.034092,29.366943
246,0,-73.377075,148.495041,-2.949558,-22.595671,80.844734,59.839890,-115.315735,81.919243,4.341786,20.488476,37.754921,54.675541,35.996834,8.663825,34.017609,48.853554,35.121414,29.338858
247,0,-73.408287,148.514786,-2.956239,-22.596239,80.852715,59.826244,-115.272568,81.913620,4.324138,20.481354,37.747868,54.689766,35.979332,8.667713,33.990925,48.834694,35.112488,29.304623
248,0,-73.408066,148.514801,-2.956950,-22.637001,80.867889,59.813007,-115.267426,81.903297,4.304456,20.443676,37.747475,54.646202,35.976013,8.663507,33.966530,48.906399,35.090221,29.318188
249,0,-73.424950,148.510254,-2.984531,-22.633896,80.859482,59.809505,-115.254295,81.932968,4.286793,20.437784,37.735008,54.666882,35.972694,8.668134,33.998646,48.913429,35.167374,29.282770
250,0,-73.397285,148.482101,-3.003155,-22.643553,80.866257,59.797768,-115.255859,81.916801,4.279978,20.450539,37.738564,54.658653,35.983166,8.618356,33.963829,48.921288,35.173782,29.286312
251,0,-73.389412,148.523453,-3.028066,-22.647102,80.863960,59.799641,-115.257553,81.888939,4.236368,20.426348,37.720238,54.645470,35.957680,8.640663,33.971100,48.970146,35.206566,29.247318
252,0,-73.415466,148.519440,-3.066730,-22.669744,80.868019,59.786591,-115.302879,81.995209,4.211967,20.422815,37.728920,54.633411,35.940643,8.566787,33.858482,49.069618,35.120316,29.141756
253,0,-73.415222,148.519485,-3.066148,-22.669407,80.868469,59.785542,-115.328125,81.956703,4.227253,20.419319,37.704208,54.640381,35.923855,8.566572,33.862938,49.085754,35.181316,29.122137
254,0,-73.424690,148.514435,-3.079728,-22.675812,80.856285,59.788193,-115.355003,81.955994,4.202540,20.403015,37.690502,54.683430,35.940296,8.599666,33.980751,49.067993,35.378242,29.210081
255,0,-73.423126,148.514984,-3.077518,-22.698021,80.827209,59.787384,-115.372520,81.983894,4.143468,20.364943,37.660618,54.676727,35.903099,8.515726,33.866325,49.129242,35.328846,29.063622
256,0,-73.421021,148.484634,-3.085065,-22.741119,80.778847,59.809875,-115.383743,81.976112,4.154849,20.336937,37.650784,54.702133,35.883991,8.475589,33.869972,49.142529,35.427929,28.996607
257,0,-73.432404,148.474121,-3.122720,-22.776176,80.795601,59.813976,-115.382950,81.964569,4.140928,20.288822,37.645023,54.690861,35.874969,8.466693,33.860825,49.139931,35.477402,28.952084
258,0,-73.442772,148.468124,-3.137558,-22.805193,80.747849,59.800255,-115.384911,82.001129,4.039537,20.251123,37.612331,54.701550,35.856678,8.460774,33.869728,49.128593,35.542728,28.919237
259,0,-73.448540,148.440308,-3.153958,-22.825043,80.725418,59.813042,-115.378174,81.964012,3.987513,20.239056,37.599342,54.718140,35.839539,8.445771,33.890617,49.140751,35.611515,28.892963
260,0,-73.432213,148.443130,-3.226452,-22.856226,80.724831,59.758289,-115.411858,81.881683,3.970195,20.235132,37.568375,54.697624,35.822594,8.423427,33.887840,49.130184,35.634567,28.882874
261,0,-73.449501,148.421967,-3.315665,-22.853943,80.722900,59.726692,-115.374016,81.844116,3.860122,20.220230,37.584652,54.676704,35.825623,8.417656,33.890465,49.138935,35.659595,28.847036
262,0,-73.411705,148.417084,-3.374168,-22.876904,80.759262,59.703396,-115.335587,81.847015,3.822922,20.199232,37.592468,54.680599,35.822575,8.389038,33.885616,49.107517,35.724216,28.823895
263,0,-73.418762,148.397766,-3.447139,-22.911884,80.734482,59.682854,-115.332764,81.832733,3.806586,20.164946,37.611805,54.677944,35.803917,8.409025,33.877453,49.118973,35.721523,28.822327
264,0,-73.430023,148.421570,-3.504241,-22.913338,80.736946,59.671669,-115.383385,81.785667,3.728860,20.163668,37.598690,54.668728,35.810841,8.415453,33.885754,49.091759,35.769249,28.795193
265,0,-73.432449,148.380615,-3.560997,-22.938679,80.728935,59.641605,-115.368073,81.781250,3.627611,20.130985,37.595268,54.691429,35.824852,8.384327,33.881607,49.089359,35.801090,28.786531
266,0,-73.411926,148.383240,-3.604081,-22.953178,80.727943,59.617451,-115.396118,81.802925,3.596385,20.125933,37.578083,54.665554,35.798168,8.394459,33.857235,49.090015,35.810520,28.764614
267,0,-73.406982,148.365326,-3.679114,-22.935389,80.720688,59.595032,-115.356819,81.679459,3.550281,20.132242,37.577122,54.663620,35.794334,8.415730,33.871387,49.093040,35.796165,28.762926
268,0,-73.435631,148.295517,-3.738904,-22.984257,80.716286,59.587227,-115.353523,81.671455,3.524323,20.108097,37.606350,54.653202,35.812214,8.390924,33.872959,49.110794,35.837822,28.747746
269,0,-73.441170,148.284012,-3.770088,-22.987732,80.703484,59.550507,-115.375404,81.630463,3.477471,20.124645,37.593147,54.652889,35.800682,8.387467,33.873264,49.130325,35.858063,28.721979
270,0,-73.434669,148.246429,-3.810632,-22.987654,80.680382,59.545090,-115.363457,81.573616,3.427959,20.102694,37.593857,54.689011,35.798485,8.367381,33.879330,49.133018,35.853790,28.733223
271,0,-73.426956,148.228806,-3.862461,-23.042913,80.672981,59.552235,-115.373634,81.573723,3.324906,20.072832,37.572945,54.679283,35.759926,8.354460,33.879116,49.106812,35.869732,28.729042
272,0,-73.420326,148.222183,-3.874108,-23.076891,80.652000,59.556423,-115.373917,81.582550,3.324160,20.049301,37.539860,54.666035,35.758274,8.343887,33.887459,49.075195,35.868797,28.731701
273,0,-73.442543,148.184555,-3.919817,-23.080803,80.602982,59.545849,-115.405983,81.566650,3.231404,20.015566,37.522686,54.675144,35.751369,8.324072,33.885502,49.069054,35.865433,28.712753
274,0,-73.439987,148.177368,-3.954724,-23.139778,80.612679,59.516476,-115.363625,81.489548,3.211287,20.004715,37.522789,54.662609,35.734077,8.327643,33.880981,49.066711,35.868195,28.736013
275,0,-73.444298,148.165710,-3.983682,-23.144733,80.615234,59.512245,-115.363670,81.468796,3.193834,20.003845,37.514507,54.674202,35.745216,8.319631,33.889732,49.066250,35.835487,28.747902
276,0,-73.435463,148.145950,-4.033980,-23.169756,80.632118,59.499264,-115.390404,81.502365,3.135756,20.010498,37.514343,54.668182,35.741875,8.307442,33.901676,49.060467,35.838356,28.740862
277,0,-73.454041,148.174789,-4.096793,-23.194971,80.621727,59.491058,-115.377861,81.496643,3.087015,19.961275,37.520241,54.673134,35.743828,8.346984,33.881363,49.052280,35.862232,28.744617
278,0,-73.450310,148.146210,-4.103195,-23.212055,80.608170,59.497871,-115.404922,81.497925,3.009760,19.941229,37.532269,54.656528,35.741779,8.424303,33.980598,49.005161,35.976486,28.872839
279,0,-73.457077,148.164230,-4.124010,-23.253698,80.574516,59.444839,-115.382416,81.385674,3.009790,19.932318,37.526203,54.674068,35.705341,8.332053,33.881161,49.067986,35.787098,28.827465
280,0,-73.457466,148.163757,-4.122986,-23.255531,80.580894,59.433506,-115.403236,81.428589,2.925704,19.907934,37.509220,54.676941,35.686916,8.426135,33.984344,48.965324,35.938538,28.908842
281,0,-73.453987,148.156860,-4.159082,-23.318354,80.596764,59.434139,-115.410202,81.362564,2.897439,19.878784,37.514923,54.656021,35.696003,8.426188,33.996094,48.926601,35.952724,28.907372
282,0,-73.429222,148.175339,-4.181347,-23.349276,80.581337,59.433964,-115.422783,81.420471,2.818939,19.853565,37.480732,54.653202,35.660721,8.321919,33.892338,48.935192,35.792805,28.794519
283,0,-73.466202,148.144669,-4.224354,-23.396284,80.535744,59.412151,-115.480789,81.401009,2.764548,19.822292,37.440105,54.660141,35.664001,8.408514,34.017307,48.891636,35.924423,28.932312
284,0,-73.456940,148.106567,-4.241724,-23.427687,80.499680,59.377422,-115.455826,81.343575,2.679635,19.760172,37.432224,54.681770,35.646744,8.371810,34.017551,48.857487,35.949833,28.916203
285,0,-73.453415,148.099487,-4.256913,-23.497385,80.470398,59.405163,-115.501137,81.368385,2.634775,19.703009,37.413738,54.678055,35.627300,8.338330,34.002937,48.853420,35.928368,28.916302
286,0,-73.453163,148.099442,-4.257304,-23.521626,80.422485,59.416653,-115.497589,81.431900,2.681599,19.704329,37.384571,54.703537,35.598553,8.380198,33.975529,48.820824,35.939983,28.929518
287,0,-73.426102,148.058395,-4.312726,-23.617634,80.443504,59.403080,-115.549522,81.398338,2.593264,19.644211,37.361683,54.698681,35.608696,8.340395,34.005123,48.785149,35.925220,28.930836
288,0,-73.432281,148.009201,-4.397279,-23.641552,80.386269,59.402225,-115.491440,81.315346,2.540377,19.652374,37.361378,54.694065,35.615040,8.320364,34.015095,48.799267,35.910484,28.931248
289,0,-73.465912,148.000092,-4.447618,-23.683661,80.368080,59.397163,-115.505226,81.315422,2.419708,19.606647,37.323673,54.674988,35.588154,8.323732,33.999470,48.769100,35.918095,28.926830
290,0,-73.462906,147.969803,-4.453111,-23.729862,80.335274,59.391926,-115.515869,81.218292,2.377313,19.556585,37.302845,54.695797,35.589005,8.285888,34.032104,48.769089,35.888325,28.951805
291,0,-73.435028,147.958984,-4.476952,-23.828775,80.283409,59.387341,-115.500130,81.173157,2.275967,19.514267,37.269470,54.725952,35.549545,8.303194,34.019142,48.756256,35.891781,28.961090
292,0,-73.403915,147.907669,-4.568165,-23.847824,80.254105,59.350307,-115.526901,81.152657,2.161921,19.484673,37.233704,54.703876,35.527576,8.167445,33.921478,48.779026,35.738281,28.851574
293,0,-73.447525,147.882660,-4.600568,-23.931526,80.240715,59.334595,-115.488205,81.042526,2.053346,19.461367,37.224041,54.705486,35.525562,8.171789,33.913101,48.747330,35.714077,28.862082
294,0,-73.406807,147.858398,-4.626494,-23.960182,80.205345,59.328354,-115.526588,81.075951,1.978489,19.394154,37.203838,54.706722,35.501282,8.199439,33.885910,48.733013,35.711559,28.877068
295,0,-73.388718,147.845093,-4.659761,-24.017996,80.198135,59.308952,-115.467529,80.939880,1.918242,19.396086,37.200180,54.693218,35.475800,8.173084,33.904118,48.697586,35.672802,28.882061
296,0,-73.424461,147.851028,-4.719563,-24.018015,80.185532,59.272572,-115.456146,80.918617,1.854625,19.364643,37.224586,54.683693,35.468182,8.176973,33.881527,48.713181,35.661366,28.893320
297,0,-73.413826,147.872650,-4.714731,-24.059267,80.153816,59.245361,-115.484680,80.978874,1.755866,19.348312,37.197254,54.695206,35.482174,8.167818,33.896511,48.713120,35.647831,28.895374
298,0,-73.433800,147.857483,-4.767329,-24.080835,80.174934,59.219936,-115.432281,80.898880,1.730008,19.333082,37.196262,54.671432,35.437038,8.177062,33.893600,48.667213,35.606850,28.902836
299,0,-73.426781,147.852493,-4.779837,-24.100981,80.171936,59.197948,-115.449219,80.899773,1.627739,19.307653,37.200409,54.663563,35.420971,8.192758,33.878395,48.654549,35.575748,28.927334
300,0,-73.430809,147.841721,-4.806386,-24.151037,80.165977,59.150928,-115.454399,81.010567,1.522589,19.274670,37.225491,54.662167,35.428055,8.195907,33.892307,48.629620,35.521084,28.952396
301,0,-73.419411,147.835815,-4.829443,-24.152689,80.149902,59.133560,-115.476242,80.985184,1.542882,19.284803,37.234909,54.646381,35.439007,8.193227,33.873547,48.590725,35.455811,29.009611
302,0,-73.398834,147.835495,-4.774269,-24.175186,80.148453,59.091663,-115.503517,80.974060,1.479465,19.247000,37.233566,54.628063,35.432228,8.305406,34.012882,48.498226,35.575985,29.138458
303,0,-73.442368,147.835312,-4.745639,-24.220169,80.113098,59.107544,-115.500977,81.006386,1.484196,19.181622,37.225231,54.629833,35.419518,8.201294,33.889114,48.505634,35.399994,29.018339
304,0,-73.487396,147.860382,-4.686028,-24.281658,80.102089,59.095036,-115.532814,81.649734,1.656667,19.171642,37.200954,54.636299,35.408272,8.203094,33.878201,48.481781,35.359383,29.083002
305,0,-73.509888,147.816208,-4.597860,-24.242794,80.041794,59.126648,-115.545769,81.072754,1.570681,19.193148,37.126694,54.663342,35.420345,8.163891,33.864868,48.464035,35.322868,29.080023
306,0,-73.500114,147.813950,-4.459193,-24.236759,79.990654,59.155632,-115.484863,81.494545,1.733727,19.212511,37.101555,54.703598,35.446964,8.103947,33.912327,48.506340,35.256325,29.126417
307,0,-73.500298,147.798462,-4.326210,-24.210217,79.961243,59.233849,-115.503952,80.960709,1.699670,19.284939,37.071358,54.723866,35.533131,8.175620,34.033607,48.531330,35.389610,29.223831
308,0,-73.566040,147.749268,-4.064377,-24.133364,79.920021,59.301456,-115.506500,80.923492,1.930423,19.396584,37.066650,54.758869,35.593292,8.133629,34.021732,48.599968,35.321079,29.244555
309,0,-73.687393,147.720428,-3.633120,-23.983448,79.859604,59.466030,-115.557854,80.898125,2.347171,19.579117,36.978745,54.823425,35.649235,8.027154,33.936424,48.795700,35.120739,29.177570
310,0,-73.778328,147.782730,-2.856845,-23.686193,79.771942,59.736786,-115.545746,80.821770,2.861679,19.804462,36.911526,54.950836,35.799465,8.035945,34.075600,49.024593,35.138180,29.354811
311,0,-74.006142,147.880676,-1.818666,-23.392426,79.675697,60.192329,-115.470894,80.743462,3.844748,20.091993,36.762566,55.088078,35.921238,7.888627,33.983479,49.198212,34.937336,29.245234
312,0,-74.299622,148.143860,-0.336192,-22.897738,79.574615,60.848057,-115.985901,80.260086,6.767367,20.429964,36.683640,55.276211,36.101582,7.879652,34.079502,49.416473,34.893703,29.324961
313,0,-74.528954,148.509766,1.459725,-22.276588,79.403404,61.800373,-115.709106,79.734116,8.648969,20.884594,36.475643,55.533413,36.340919,7.734809,34.187214,49.718002,34.792183,29.438370
314,0,-74.572502,149.072998,3.717148,-21.527058,79.130554,63.113087,-115.491173,80.418785,11.149352,21.332205,36.109425,55.933525,36.629253,7.461908,34.219978,50.004490,34.707153,29.609268
315,0,-74.456024,149.729507,6.396821,-20.867523,78.703590,64.682053,-115.487816,81.641609,13.726110,21.647896,35.467651,56.456348,36.725452,6.975405,34.191727,50.340622,34.515266,29.783173
316,0,-74.125458,150.497269,9.512013,-20.156120,78.118752,66.843605,-115.462463,82.938408,16.513855,21.809326,34.526306,57.173206,36.487667,6.497868,34.285076,50.630814,34.224514,30.085039
317,0,-73.464165,151.237518,12.919391,-19.382021,77.701233,69.547333,-115.145020,83.561409,19.577057,21.828022,33.419296,58.045689,35.878860,6.036460,34.394482,50.726231,33.933773,30.556345
318,0,-72.714470,151.942535,16.568491,-18.445107,77.648331,72.835365,-114.322510,85.754433,22.004034,22.030563,32.720589,58.877365,34.348915,5.319655,34.079830,50.697308,33.796677,31.137157
319,0,-71.782379,152.519424,20.339275,-17.492523,77.893280,76.715721,-113.578041,85.667099,25.566271,21.578123,31.494410,60.235157,32.132069,4.408364,34.156288,50.591354,33.356716,31.340733
320,0,-70.645508,153.487411,24.402817,-16.296303,78.484055,81.259964,-112.502037,87.093674,28.889820,20.735542,30.340437,62.848598,29.227068,4.171472,34.705784,49.675453,32.356777,32.280087
321,0,-69.355507,153.577240,28.276247,-15.114016,79.139290,86.463470,-111.130806,87.595787,32.528973,20.114557,29.843290,66.421349,26.808195,4.786679,36.311871,48.361813,31.127874,33.949677
322,0,-67.620125,154.285843,32.464985,-14.207753,79.904968,92.102493,-109.562675,86.957840,36.704643,20.215261,30.037329,71.178337,26.470190,5.342852,40.715553,46.844376,29.385101,37.494057
323,0,-65.466537,155.171982,37.049576,-13.269888,80.995682,98.142845,-107.274406,88.883881,40.308662,21.120291,30.815155,77.411583,27.678038,6.484930,46.763424,45.437519,27.610550,43.100441
324,0,-63.198753,156.270920,41.822891,-12.270996,82.204208,104.250603,-105.014053,88.591850,44.823128,22.819338,32.252769,84.672195,30.295496,7.716820,54.588947,45.544838,26.556583,51.179867
325,0,-60.419743,157.547562,46.743332,-10.951468,83.585342,110.412689,-101.980659,91.006744,48.485901,25.211533,34.202778,92.339561,34.051022,8.998157,63.057877,48.221352,26.962944,60.995342
326,0,-57.398830,158.988861,51.846050,-9.151331,85.634140,116.388351,-98.728340,92.095139,52.919209,27.849934,36.017677,100.326515,37.508667,10.585040,71.606308,52.464222,29.632198,69.915489
327,0,-53.977497,160.574402,56.888367,-6.697358,87.815948,122.375023,-95.206291,92.360512,58.322941,31.005339,38.167442,108.241714,41.690376,12.555772,79.975090,57.911880,32.913418,78.547386
328,0,-50.129532,162.272705,61.869877,-3.439986,90.276909,128.377945,-91.057503,94.048004,63.082829,35.067890,40.931656,115.694122,46.659771,14.764289,88.166557,63.257763,36.327354,86.521950
329,0,-45.695202,164.300064,66.836327,0.375852,92.987915,134.350998,-86.313011,96.011017,67.630112,39.556419,43.928524,122.809052,51.655655,17.395084,95.764336,68.728973,39.643318,93.822502
330,0,-40.864609,166.211578,71.553894,4.770394,95.886627,140.246399,-80.935265,98.546745,72.096642,44.385342,47.007179,129.624344,56.977280,20.384102,102.738190,74.135986,42.990765,100.016365
331,0,-35.550091,168.386505,76.338356,9.811779,98.932312,145.887619,-75.262321,100.394386,76.761909,49.761875,50.160221,136.066177,62.759289,23.472696,109.311089,79.845230,46.176865,105.730484
332,0,-29.837492,170.676682,80.984138,15.320948,101.991692,151.342072,-69.089363,102.415298,81.215302,55.700657,53.390106,142.103836,68.955841,26.705053,115.459320,85.787201,49.227158,111.155251
333,0,-23.673557,173.083206,85.565399,21.415743,105.003471,156.378067,-62.328091,104.388748,85.380203,62.125683,56.676403,147.663437,75.917625,30.063805,121.031212,92.214500,52.287292,116.337173
334,0,-17.133970,175.565491,90.077896,27.872795,107.801819,161.102600,-55.190712,106.537338,89.282600,69.214310,60.074955,152.787201,83.462837,33.623348,126.175911,99.192886,55.660831,121.344269
335,0,-10.387918,178.142227,94.408195,34.772808,110.788857,165.559662,-47.625881,108.618484,92.878647,76.901733,63.476055,157.433228,91.754250,37.230949,130.793350,107.167175,59.306152,125.980553
336,0,-3.174744,180.709778,98.621346,42.119465,113.388382,169.452026,-39.930458,108.988792,96.653694,85.006172,66.868744,161.467667,100.254868,41.100784,134.686142,115.651573,63.362152,130.154755
337,0,4.280493,183.292694,102.532364,49.835724,115.909340,173.015335,-31.595036,111.140999,99.505959,93.567078,70.174248,164.981049,109.536774,44.642525,138.146530,124.712311,67.590683,133.829361
338,0,11.875767,185.828873,106.337730,57.929867,118.304794,176.146103,-22.958479,113.540497,101.990570,102.469452,73.416451,167.907257,118.950119,48.367878,140.976562,134.031784,71.867828,136.872345
339,0,19.622461,188.342545,109.824341,66.376671,120.637466,178.853622,-14.021878,117.488411,104.181305,111.500259,76.800484,170.226990,128.627640,52.150490,143.032806,143.498444,76.062042,139.164719
340,0,27.494902,190.761795,113.025360,75.179893,122.852760,181.120789,-5.356789,118.570450,106.233482,121.285835,79.879143,171.946396,138.457764,55.895557,144.452316,153.093674,80.162491,140.852173
341,0,35.506905,193.127319,115.840454,84.251320,125.167755,183.019043,3.534264,120.585014,108.423546,131.118912,83.107788,173.183243,148.355362,59.581768,145.199890,162.709122,84.064667,141.889633
342,0,43.598679,195.374405,118.274193,93.492149,127.330627,184.583664,12.762486,122.068619,110.515274,140.995865,86.275322,173.903473,158.448181,63.258118,145.805328,172.241455,87.599785,142.318665
343,0,51.810593,197.536484,120.275452,102.767090,129.418869,185.699112,21.671915,124.024818,111.817375,150.791489,89.260513,174.258850,168.424805,66.590317,145.627960,181.701019,90.793991,142.218445
344,0,60.006329,199.573730,121.722206,112.055145,131.604538,186.353592,30.381088,126.042542,112.773499,160.471237,92.097542,174.197556,178.045227,69.868172,145.333054,191.019211,93.740723,141.762344
345,0,68.203171,201.450546,122.764305,121.201714,133.730026,186.562424,39.004196,127.837448,113.473206,169.882965,94.690300,173.781479,187.261780,72.935715,144.306915,199.960953,96.366310,140.849411
346,0,76.266182,203.232086,123.461678,129.995422,135.607101,186.454758,47.564629,129.444260,113.818520,179.163437,97.120743,172.895615,196.456497,75.822357,143.085724,208.747330,98.838913,139.582748
347,0,84.075455,204.859497,124.003899,139.018585,137.099319,185.797150,55.867233,130.899765,113.914818,188.276978,99.384499,171.512024,205.564590,78.522652,141.349411,217.108093,101.211525,137.781662
348,0,91.652504,206.352707,124.334297,147.651337,138.362000,184.939972,63.977577,132.427963,113.607300,197.129288,101.425774,169.635544,214.397064,81.256752,138.834320,225.819565,103.673119,135.772186
349,0,98.911842,207.794144,124.613640,155.970856,139.403244,183.727737,71.701141,133.863876,113.106232,205.721344,103.253891,167.267456,222.431229,83.721748,135.595993,233.871246,105.855377,132.981796
350,0,105.777214,209.121658,124.763603,164.019669,140.134308,182.158798,79.122948,135.290283,112.380104,213.943390,104.716522,164.470825,230.365097,85.829887,132.294357,241.610214,108.003288,129.991760
351,0,112.263832,210.284363,124.737160,171.727905,140.648102,180.401749,86.080933,136.486267,111.473640,221.622879,105.908417,161.352402,237.769165,87.849152,128.886673,248.889816,110.024719,126.770470
352,0,118.574928,211.308121,124.435036,179.009293,141.071899,178.434570,92.707870,137.622406,110.403191,228.899841,106.948891,158.110260,244.882553,89.608299,125.167412,255.090805,112.687233,122.806671
353,0,124.512192,212.161316,123.744438,185.966156,141.458267,176.326584,98.927521,138.585175,109.127403,235.748199,107.845215,154.791504,251.096481,90.844696,121.411598,261.761963,113.868576,119.451286
354,0,130.384354,212.862289,122.581985,192.490982,141.766510,174.079330,104.875885,139.346878,107.662201,242.111069,108.463066,151.563965,257.147491,91.843163,117.804504,267.717407,114.959717,115.841507
355,0,136.018295,213.452850,121.098518,198.602646,142.038162,171.680649,110.516953,139.954803,106.039253,247.932098,108.858467,148.396545,262.513794,92.376358,114.373932,272.899750,115.714760,112.426437
356,0,141.542023,213.940964,119.356148,204.391708,142.276428,169.243622,115.871719,140.552460,104.208115,253.436356,108.943626,145.335495,267.568665,92.658096,110.666389,277.996857,115.721344,108.967552
357,0,146.650024,214.369781,117.483185,209.958420,142.532516,166.671356,121.004883,141.000092,102.367279,258.599426,108.938660,142.224106,272.346741,92.822609,107.633156,282.758850,115.761909,105.785774
358,0,151.483597,214.713440,115.618614,215.235062,142.677795,164.014038,125.788269,141.381714,100.402969,263.507263,109.078438,138.925034,276.959900,93.129318,104.073753,287.263580,115.899200,102.179337
359,0,155.993195,214.997971,113.869507,220.268005,142.714798,161.271362,130.350388,141.740021,98.411766,268.303619,109.236893,135.463226,281.446167,93.608040,100.341530,291.818024,116.207802,98.677185
360,0,160.142380,215.220490,112.111038,225.134628,142.675278,158.507324,134.671814,141.980804,96.418587,272.999573,109.614128,131.868454,285.710022,94.276146,96.192520,296.079865,116.754585,94.827766
361,0,164.028305,215.414429,110.534851,229.584320,142.584076,155.753357,138.672333,142.189011,94.378983,277.410370,110.007301,128.317337,289.916107,95.044403,92.483208,300.131226,117.515289,91.162361
362,0,167.555527,215.550507,109.024796,233.723785,142.310837,153.122986,142.392380,142.441025,92.358833,281.534271,110.253815,124.958740,293.766602,95.792831,88.928436,303.841705,118.255272,87.851440
363,0,170.871292,215.712402,107.494041,237.516937,141.989929,150.577484,145.916260,142.639526,90.355225,285.250214,110.270615,121.853500,297.524872,96.132286,85.770058,307.441162,118.618004,84.764008
364,0,173.965088,215.829910,106.014549,241.002823,141.588516,148.146042,149.168442,142.778381,88.407326,288.622681,110.078491,118.991669,300.469574,96.210876,82.502449,310.672546,118.708702,81.801125
365,0,177.422211,215.705048,104.466492,244.259460,141.258698,145.877533,152.205826,142.973251,86.347931,291.707306,109.808647,116.380951,303.433136,96.136444,79.728470,313.617432,118.655525,79.166824
366,0,180.413910,215.663452,102.806946,247.317184,140.979095,143.685944,155.082703,143.003723,84.650734,294.617096,109.476189,113.966988,306.196503,95.880234,77.235588,316.511292,118.562599,76.728493
367,0,183.214874,215.657074,101.178383,250.263657,140.762009,141.582184,157.764114,142.979065,82.953880,297.380554,109.129028,111.642784,308.717987,95.758835,75.145599,319.049194,118.483307,74.358147
368,0,185.967194,215.652786,99.585747,253.144348,140.574524,139.542221,160.353760,143.012390,81.451324,299.934174,108.816399,109.470924,311.030579,95.407997,72.803810,321.258606,118.133011,72.148102
369,0,188.597000,215.734802,97.936806,255.922501,140.520966,137.579102,162.899582,143.098679,79.960861,302.491882,108.623581,107.393051,313.495056,95.088768,70.434975,323.898407,117.873543,69.789062
370,0,190.963150,215.834015,96.360565,258.566010,140.636520,135.715363,165.344452,143.179443,78.509888,304.841156,108.517471,105.284477,315.973663,94.975624,68.434975,326.333893,117.775467,67.834259
371,0,193.258026,215.863083,94.857719,261.128143,140.695297,133.935822,167.612213,143.154541,77.135773,307.385345,108.699524,103.338120,318.194122,95.267044,66.605202,328.878326,117.982658,65.808418
372,0,195.366226,215.914383,93.430244,263.501038,140.851044,132.187210,169.767502,143.116653,75.812691,309.821442,109.007767,101.418335,320.602478,95.585251,64.724289,330.950043,118.315063,63.955219
373,0,197.377213,215.964478,92.176163,265.753693,140.933075,130.573105,171.806671,143.208267,74.526970,312.052490,109.339188,99.672073,322.893646,95.902580,62.929405,333.213074,118.787064,62.091122
374,0,199.226715,215.984848,90.998611,267.730743,140.818130,129.004013,173.563004,143.182510,73.239517,314.205750,109.573677,98.009827,325.036011,96.143784,61.285255,335.388031,119.036461,60.482082
375,0,200.915466,215.958359,89.947098,269.467865,140.593445,127.540123,175.254684,143.233459,72.015038,315.991455,109.539635,96.509644,326.641235,96.116776,59.551315,336.760468,119.271355,59.077587
376,0,202.505447,215.917297,88.879036,271.056854,140.208267,126.124992,176.732056,143.240173,70.832085,317.480896,109.281631,95.010246,328.485321,95.766838,58.162067,338.400513,118.918076,57.600960
377,0,204.107925,215.798401,87.821098,272.424133,139.859451,124.743492,178.038483,143.199524,69.699959,318.698914,108.753128,93.480545,329.236908,95.207420,56.612961,339.799469,118.267532,56.310841
378,0,205.480911,215.737076,86.808075,273.747406,139.375412,123.408470,179.194977,143.200546,68.726898,319.654236,107.921677,92.060242,330.025879,94.389511,55.115749,340.845367,117.401199,55.311398
379,0,206.886734,215.598984,85.731529,275.018524,138.937546,122.069885,180.207870,143.143646,67.850906,320.483002,106.979500,90.580490,330.621185,93.232964,53.682159,341.594238,116.176445,53.863747
380,0,208.258179,215.564636,84.782372,276.190613,138.545517,120.748680,181.269608,143.088943,66.982162,321.178955,106.060677,89.187042,331.384491,92.159058,52.374775,342.395264,114.873253,52.316303
381,0,209.370117,215.493027,83.759163,277.330231,138.193329,119.477570,182.223602,142.964920,66.119354,321.960022,105.276604,87.746735,331.702515,91.312431,50.989826,342.998383,113.702316,50.766418
382,0,210.510178,215.297241,82.618546,278.482483,137.904419,118.187798,183.116959,142.905243,65.230682,322.705048,104.707642,86.296661,332.108307,90.629303,49.369629,343.152008,113.022430,49.379143
383,0,211.618744,215.287201,81.823357,279.354523,137.660919,116.911804,183.941391,142.873108,64.237892,323.389343,104.366112,84.802528,332.423950,90.320137,47.904560,343.564789,112.471497,47.523598
384,0,212.366653,215.190933,80.895447,280.066772,137.294800,115.620888,184.525620,142.863358,63.163521,323.972504,104.087891,83.323174,332.827911,90.024086,46.146694,344.277069,112.191895,46.051899
385,0,212.999649,214.988449,79.805344,280.611633,136.878082,114.346863,185.035080,142.816040,61.938862,324.507141,103.803864,81.740524,333.142426,89.963051,44.598732,344.468262,112.038162,44.303062
386,0,213.710236,215.120255,79.085823,281.043365,136.477127,112.987358,185.513779,142.806717,60.684669,324.786530,103.497025,80.112389,333.072754,89.871223,42.661179,344.685760,111.967049,42.523804
387,0,214.311188,214.979492,77.998367,281.263611,135.989761,111.837486,185.840775,142.778015,59.321484,324.780243,103.042542,78.477699,332.773560,89.661385,40.849728,344.438538,111.464523,40.609325
388,0,214.748062,214.562408,76.636734,281.244873,135.289642,110.575623,186.099472,142.698776,57.887707,324.499420,102.244179,76.807617,331.876587,89.353569,38.451294,343.732056,110.929710,38.697899
389,0,215.332047,214.611633,75.733253,280.971161,134.417679,109.278633,186.291061,142.574402,56.402668,324.193909,101.559464,75.287674,331.748810,89.078545,36.979256,342.959991,110.219727,36.799000
390,0,215.653885,214.384048,74.393913,280.646881,134.002228,108.150650,186.294220,142.405029,55.115494,324.146484,101.218895,74.318001,331.913574,88.631531,36.005157,343.180450,109.553047,35.552883
391,0,215.830658,214.282135,73.097420,280.226044,133.881775,107.291725,186.282730,142.335358,53.831318,324.034943,100.922272,74.178444,332.112335,87.896149,35.950970,343.236664,108.996101,35.062050
392,0,216.066086,214.263321,71.697678,279.760468,133.956879,106.713654,186.247833,142.310181,52.834003,323.597290,100.391342,74.473984,331.962860,87.043610,36.389343,343.319244,108.428886,35.130379
393,0,216.156403,214.367813,70.586205,279.389496,134.128067,106.315659,186.148697,142.468582,52.086277,323.004211,99.826019,74.685760,331.617889,86.482681,36.484695,343.284058,107.844147,35.371578
394,0,216.315979,214.591812,69.752373,279.129639,134.348007,106.090431,185.896820,142.929382,51.242981,322.732208,99.826279,74.827034,331.477783,86.381798,36.651028,343.264130,107.571175,35.499699
395,0,216.406036,214.859467,69.130768,278.932312,134.614517,105.916946,185.921707,143.231598,50.766495,322.743561,100.237602,74.797905,331.553680,86.579597,36.727810,343.223694,107.626633,35.521965
396,0,216.594101,215.254974,68.774765,278.840363,134.929230,105.789658,185.981140,143.547180,50.354744,322.830811,100.744240,74.776253,331.807831,86.917793,36.835743,343.288269,107.955376,35.424431
397,0,216.772751,215.565598,68.425018,278.814301,135.280472,105.673309,186.118683,143.880829,50.064960,322.922791,101.281334,74.747635,332.081726,87.266212,36.991413,343.675079,108.271820,35.525093
398,0,216.936539,215.958084,68.275520,278.805725,135.696838,105.655945,186.247345,144.236908,49.815678,323.040771,101.773796,74.732651,332.290924,87.586235,37.141167,343.749908,108.618141,35.496620
399,0,217.000458,216.419281,68.427040,278.816711,136.026947,105.718353,186.376297,144.704163,49.738930,323.025635,102.245964,74.646217,332.228577,87.987633,37.136448,343.367523,109.172546,35.209724
400,0,217.024033,216.934891,68.772118,278.755981,136.482147,106.004860,186.371063,145.180389,49.934555,322.910858,102.755569,74.689262,332.154663,88.613922,37.255363,343.210907,109.640999,35.217182
401,0,216.799850,217.420486,69.292671,278.470856,137.030182,106.678238,186.146729,145.660065,50.351608,322.640503,103.426926,75.011246,331.918152,89.376686,37.485386,343.102844,110.253860,35.657742
402,0,216.055145,217.489487,69.502670,277.889465,137.697647,107.745590,185.749481,146.195038,51.115150,322.094330,104.162552,75.862938,331.197510,90.214188,38.403564,342.453674,111.010460,36.668255
403,0,215.157501,218.443253,70.910637,276.945892,138.893723,109.387909,185.033203,146.878555,52.196976,321.089447,105.010239,77.388618,330.334808,90.992981,40.029602,341.172974,111.651649,38.272820
404,0,213.823395,219.017059,71.979042,275.546356,140.035782,111.492950,183.824448,147.546738,53.673100,319.851257,105.877052,79.697250,328.982574,91.697922,42.476040,340.166870,112.499046,40.452366
405,0,212.414459,220.047760,73.657944,273.706329,141.397415,114.038322,182.369904,148.390350,55.529160,318.037079,106.994797,82.719650,327.365540,92.487572,45.631348,338.371063,113.025291,43.759693
406,0,210.321045,221.011902,75.376610,271.422424,142.896729,117.047012,180.400528,149.223557,57.742710,315.794708,108.190186,86.250793,325.389740,93.306305,49.311207,336.359528,113.672371,47.404812
407,0,207.975769,222.174530,77.420166,268.452301,144.495651,120.367203,178.133469,150.075943,60.346409,313.054108,109.455414,90.181137,322.713959,94.161598,53.502544,333.447540,114.552528,51.367859
408,0,205.031097,223.516785,79.755196,264.972137,146.260757,123.835594,175.234802,151.108795,63.036209,309.677917,110.779213,94.441429,319.575012,95.070015,57.884941,330.398468,115.331558,55.803616
409,0,201.522568,224.994904,82.153862,260.901184,148.146683,127.552391,171.632050,152.498840,65.779358,305.665741,112.170715,98.867653,315.787567,96.124649,62.706402,326.739624,116.114815,60.493408
410,0,197.626358,226.665390,84.672440,256.271851,150.132660,131.262146,167.449036,154.280136,68.357246,301.149078,113.716919,103.363029,311.507477,97.215225,67.333717,323.134155,116.470367,65.613274
411,0,192.854446,228.660782,87.061401,251.120621,152.256683,134.882126,162.893600,156.135010,71.086876,296.176666,115.469452,107.741798,306.692596,98.475388,71.864624,318.332916,117.599030,70.166557
412,0,188.270279,230.585373,89.426498,245.595688,154.542801,138.350632,157.907272,158.078186,73.696518,290.637909,117.266548,111.915810,301.449982,99.913124,76.263184,313.357147,118.851936,74.579437
413,0,183.170258,232.690430,91.632607,239.660400,156.972290,141.531235,152.472336,160.119659,76.115875,284.850983,119.336792,115.890556,295.746124,101.506310,80.417587,307.508667,120.413452,78.603210
414,0,177.638504,234.995300,93.570160,233.414810,159.564316,144.431335,146.662781,162.433899,78.356438,278.656036,121.450737,119.504066,289.621307,103.264420,84.363777,301.529510,121.832512,82.592270
415,0,171.711151,237.395691,95.225815,226.833282,162.226212,147.047485,140.511444,164.796570,80.198944,272.063477,123.522186,122.740570,283.133087,105.134781,87.844864,294.868805,123.555435,86.056732
416,0,165.456085,239.954742,96.699867,219.898788,164.998093,149.244141,134.164581,167.392776,81.769524,264.943756,126.036690,125.604836,276.351074,107.153618,90.755882,288.269714,125.366631,89.106010
417,0,158.846725,242.637756,97.937958,212.559204,167.597733,151.126404,127.431419,170.144150,82.918472,257.740082,128.540939,127.911301,269.190704,109.349106,93.327209,281.140778,127.438576,91.697235
418,0,152.077744,245.434204,98.969131,205.213623,170.314697,152.565521,120.469597,172.945251,83.735580,250.250961,130.875305,129.732025,262.017639,111.775513,95.088318,273.765137,129.800186,93.470337
419,0,145.123154,248.322205,99.680122,197.653397,172.983170,153.686081,113.765343,176.371475,83.785851,242.641708,133.322388,131.040802,254.624634,114.265450,96.566109,266.561890,132.056015,94.973701
420,0,138.073273,251.278229,100.194412,190.166183,175.777771,154.354095,106.444221,178.952347,84.279678,235.187317,135.962097,131.955063,247.105881,116.874382,97.496925,258.876953,134.589661,95.914925
421,0,130.999664,254.275650,100.380737,182.801666,178.621750,154.571411,99.419212,182.153397,84.069321,227.667114,138.660706,132.390442,240.027832,119.647522,98.056664,251.717117,137.719498,96.585297
422,0,123.907837,257.313965,100.297668,175.577469,181.535553,154.518875,92.663574,185.454315,83.097221,220.386032,141.495758,132.375702,232.829514,122.451538,97.993874,244.562408,140.605820,96.634506
423,0,116.875633,260.379303,99.923363,168.452927,184.449097,154.022797,85.731720,188.803329,82.717102,213.296890,144.415588,131.884338,225.818481,125.161346,97.461449,237.112061,143.895966,96.102211
424,0,109.895081,263.484344,99.330139,161.437424,187.384964,153.175888,78.744659,191.635880,81.596870,206.293213,147.311798,131.013824,219.148743,127.997505,96.248322,230.515381,146.886139,95.032532
425,0,103.011604,266.586884,98.485504,154.588455,190.456100,152.080826,71.765244,194.588135,81.030220,199.601730,150.358887,129.713272,211.750366,131.787918,94.784233,223.601685,150.107925,93.671165
426,0,96.216827,269.679932,97.358582,148.292465,193.332062,150.605774,65.051865,197.447845,79.866585,192.954971,153.388855,128.034866,205.348801,134.984009,93.076508,217.088104,153.318558,91.923332
427,0,89.491997,272.731079,96.147568,142.068848,196.389038,149.022995,58.733147,200.527222,78.483322,186.744705,156.494400,126.169533,199.055740,138.172180,91.228325,210.840866,156.657990,89.945061
428,0,83.140312,275.679443,94.641304,136.055817,199.439484,147.221069,52.679749,203.903137,76.702789,180.688339,159.653839,124.036804,192.556488,141.400497,88.806908,204.582916,160.073074,87.810188
429,0,76.875885,278.590973,92.965164,130.327713,202.467438,145.307129,46.580643,206.700775,75.067734,174.810059,162.741745,121.872421,186.982803,144.496048,86.776451,198.648666,163.417435,85.219604
430,0,70.846092,281.396698,91.163307,124.838020,205.490860,143.271896,40.510872,208.963379,73.682625,169.124710,165.916336,119.491371,181.164536,147.757431,84.680939,193.601044,166.447006,83.270088
431,0,65.120102,284.134796,89.305267,119.538788,208.369156,141.091507,34.929798,211.637115,71.869659,163.961288,168.794724,117.138458,175.685425,150.806702,81.780602,187.646866,169.872375,80.587349
432,0,59.465897,286.754852,87.530655,114.564285,211.064407,138.893219,29.652634,214.228760,70.031219,158.818909,171.644501,114.523094,170.619202,153.766617,79.276512,182.881287,172.783173,77.839180
433,0,54.113297,289.239532,85.788254,109.847206,213.575409,136.589310,24.543152,216.627533,68.133102,154.106949,174.371933,111.796150,165.872635,156.704269,76.272804,177.892731,175.947739,74.794594
434,0,49.105423,291.546295,84.151642,105.283768,215.751755,134.357376,19.705444,218.790802,66.282608,149.645233,176.984543,109.036690,161.167038,159.476364,73.366798,173.294128,178.869598,71.989365
435,0,44.131611,293.729004,82.539856,101.031029,217.905807,132.123077,15.126459,220.982315,64.444977,145.456482,179.410461,106.391655,156.689774,162.354294,70.531082,168.614090,181.856293,68.887444
436,0,39.526752,295.766846,81.066124,97.095329,219.900726,129.971695,10.823440,222.913361,62.695583,141.409927,181.605133,103.785713,152.712952,164.696304,68.104530,164.353745,184.577469,66.497635
437,0,35.196388,297.628357,79.588585,93.460945,221.844269,127.840836,6.808045,224.732025,61.056461,137.686096,183.700470,101.309746,148.774216,167.060791,65.578545,160.374893,186.885742,63.968719
438,0,31.118435,299.378387,78.083412,89.994041,223.698669,125.899536,3.089403,226.471848,59.521595,134.222733,185.782623,99.022072,145.283218,169.109024,62.920937,156.943481,189.107742,61.462273
439,0,27.101454,301.219574,76.613617,86.838547,225.571121,123.979073,-0.457576,228.032135,58.106880,131.030731,187.774551,96.861115,141.936874,171.148178,60.893471,153.575623,191.223679,59.178600
440,0,23.811794,302.571503,74.956337,83.954842,227.408951,122.084267,-3.675730,229.321198,56.693344,128.198303,189.650070,94.895317,138.776535,173.059067,58.863388,150.839584,193.126205,57.201042
441,0,20.727566,303.928345,73.277100,81.340187,229.178406,120.342514,-6.671715,230.803558,55.359444,125.432358,191.408203,93.035629,136.075363,174.880463,57.120636,147.883743,195.012726,55.426994
442,0,17.906340,305.195007,71.714493,78.972946,230.875641,118.614273,-9.339580,231.894211,54.103790,123.139465,193.152969,91.315758,133.506348,176.478836,55.148342,145.071762,196.931290,53.208141
443,0,15.273741,306.409332,70.247063,76.808136,232.358170,117.000725,-11.678305,233.033997,52.878044,120.980431,194.679092,89.602295,131.497955,177.804077,53.324287,142.899506,198.458710,51.256088
444,0,12.887347,307.506653,68.908592,74.886795,233.665176,115.512367,-13.904039,234.011932,51.620064,118.954102,196.019363,87.970451,129.371399,179.301636,51.666798,140.830444,199.953476,49.640926
445,0,10.693448,308.516144,67.812378,73.006393,234.837418,114.027985,-15.883749,235.085846,50.448601,116.999123,197.122894,86.306709,126.954765,180.751938,49.947987,139.144669,201.463943,48.179173
446,0,8.508016,309.424622,66.929474,71.395042,235.698807,112.663918,-17.703102,235.868576,49.380863,115.260490,198.138840,84.724945,125.790504,181.830124,48.371868,137.640991,202.967606,46.374420
447,0,6.643111,310.210907,66.202896,69.766747,236.397858,111.438362,-19.298923,237.253876,48.358719,113.705971,199.110474,83.238495,123.436760,183.158173,46.637852,135.872833,204.186249,44.981560
448,0,4.763416,311.047455,65.703552,68.232826,236.946487,110.292244,-20.824055,237.682861,47.523937,112.099045,199.784149,81.815193,122.430550,183.909653,45.150864,134.337967,205.416016,43.334732
449,0,3.098959,311.694977,65.180733,66.823135,237.503250,109.307556,-22.289022,238.104309,46.810066,110.543495,200.331009,80.630501,120.566826,184.677933,43.863174,132.518280,206.284454,42.269638
450,0,1.468400,312.077362,64.413040,65.351418,238.015671,108.430794,-23.666636,238.355545,46.224094,108.922295,200.820251,79.622864,119.123055,185.090118,42.912464,130.827560,206.995209,41.127384
451,0,-0.035719,312.554108,63.724205,63.985722,238.546051,107.602318,-25.035181,238.516632,45.718128,107.304558,201.040314,78.760857,116.978310,185.552765,42.133236,129.512421,207.325989,40.509712
452,0,-1.389934,312.900940,63.003815,62.692574,239.061859,106.916267,-26.446358,238.575882,45.412003,106.004883,201.336716,78.158356,115.735413,185.528229,41.285149,127.814186,207.665329,39.595299
453,0,-2.757725,313.270386,62.338791,61.569473,239.437546,106.203079,-27.786865,238.533295,45.021320,104.597343,201.500519,77.501701,113.962250,185.547318,40.718071,126.540604,207.547302,38.914410
454,0,-3.838247,313.715118,61.822018,60.526562,239.794662,105.501129,-28.852911,238.402985,44.791687,103.318398,201.628174,76.705910,112.668213,185.428848,40.208332,125.333694,207.206589,38.123043
455,0,-4.862414,313.826538,61.015068,59.578850,240.016159,104.727539,-29.988260,238.619400,44.442394,102.242653,201.615616,76.014374,111.622246,185.274612,39.271358,123.483139,207.375015,37.006813
456,0,-5.698364,314.299164,60.715923,58.743118,240.242065,104.042206,-31.935699,240.276337,43.646175,101.178543,201.705688,75.155418,109.825829,185.445724,38.329575,122.630928,207.140930,36.301849
457,0,-6.558364,314.297150,60.065395,57.888973,240.216248,103.423645,-32.782318,240.527756,43.137630,100.362335,201.767426,74.302132,109.034309,185.592072,37.507442,122.029434,206.991486,35.495712
458,0,-7.238711,314.542450,59.700394,57.290211,240.308029,102.710480,-32.833744,239.711258,42.875626,99.604591,201.958694,73.432884,108.554008,185.684921,36.984348,120.441811,207.510361,34.338467
459,0,-7.847898,314.755341,59.309517,56.531597,240.453644,102.077393,-33.528755,239.972794,42.327354,99.027550,202.086823,73.034996,107.861839,185.710831,36.497360,119.907272,207.968674,33.790417
460,0,-8.465069,314.972748,58.958012,55.917049,240.773087,101.610222,-34.086632,240.180252,41.934795,98.090652,201.929535,72.965927,106.784912,185.591232,36.246223,119.843529,208.032776,33.685181
461,0,-9.094410,315.216553,58.689877,55.344902,240.947845,101.299500,-34.790768,240.403824,41.847584,97.502579,202.049500,72.929413,106.094643,185.443069,36.187016,119.306335,208.016251,33.644455
462,0,-9.694638,315.392029,58.670662,54.728359,241.055359,101.108841,-35.542633,240.558807,41.884518,96.781410,201.874954,72.758682,105.536011,185.134888,36.062702,118.790497,207.999084,33.454456
463,0,-10.285714,315.511444,58.784367,54.088024,241.055023,101.196251,-36.097923,240.548462,42.235535,95.882828,201.632629,72.789703,104.256340,184.966522,36.090988,117.792976,207.888199,33.479828
464,0,-10.865452,315.609070,59.046959,53.387985,240.888702,101.400093,-36.879936,240.591583,42.468708,94.984802,201.281296,72.881065,103.165115,184.787262,35.824051,116.651443,207.742386,33.188599
465,0,-11.386111,315.630920,59.405415,52.690559,240.676773,101.668404,-37.634087,240.636887,42.564369,94.077362,200.952545,72.904861,102.456604,184.445938,35.826408,115.819008,207.246307,33.508457
466,0,-11.871227,315.581604,59.826736,51.960194,240.237244,101.910347,-39.227432,241.826462,42.474579,93.139687,200.529861,73.017372,101.449173,184.206436,35.713802,114.983772,206.893066,33.720718
467,0,-12.348440,315.494751,60.209785,51.159695,239.837952,102.078896,-39.772678,241.800629,42.524265,92.256187,200.020950,73.073875,100.267143,184.039505,35.631310,114.002113,206.495773,33.852383
468,0,-12.727623,315.351166,60.494576,50.606792,239.385056,102.098534,-40.293571,241.742783,42.569260,91.565773,199.558578,73.048798,99.655945,183.541031,35.542683,113.381554,206.120178,33.817699
469,0,-13.066808,315.221191,60.592846,50.163971,238.989182,102.072327,-40.808563,241.657715,42.547714,91.002396,199.108765,73.036285,98.916199,183.090591,35.522434,112.915100,205.570862,33.887489
470,0,-13.309343,315.098450,60.474731,49.798306,238.733612,101.864037,-41.071190,241.956390,42.727921,90.532402,198.670898,72.939720,98.293777,182.627686,35.410912,112.620232,205.064713,33.758720
471,0,-13.480837,314.941681,60.117020,49.552715,238.575424,101.575584,-41.561954,241.535080,42.581821,90.165176,198.330231,72.831734,97.711510,182.227295,35.234322,112.113411,204.509293,33.354664
472,0,-13.642408,314.848785,59.657600,49.334492,238.541412,101.147278,-41.959316,241.435318,42.420033,89.954414,198.211197,72.764771,97.528603,181.893539,35.271484,111.729080,204.024658,33.077145
473,0,-13.763057,314.823853,59.177994,49.150841,238.512146,100.695564,-42.301197,241.469315,42.177433,89.972221,198.148376,72.645439,97.520569,181.577103,35.200871,111.731277,203.683014,32.969852
474,0,-13.815596,314.872620,58.896461,49.122894,238.568893,100.238373,-42.500267,241.533920,41.931293,89.972946,198.089752,72.573059,97.633919,181.486237,35.076881,111.896240,203.597748,32.765583
475,0,-13.921483,315.000214,58.782387,49.163406,238.765305,99.941521,-42.558136,241.627731,41.848415,90.088112,198.310928,72.511391,97.733574,181.502777,35.001644,112.066910,203.707428,32.521992
476,0,-14.046434,315.197327,58.796947,49.319202,239.087891,99.779762,-42.611443,241.817322,41.943142,90.328491,198.732086,72.400421,97.826881,181.688766,34.971184,112.247864,203.920685,32.405571
477,0,-14.173083,315.469727,58.972759,49.476124,239.443481,99.787849,-42.618740,241.999527,42.177830,90.552391,199.265045,72.222832,98.058769,181.941238,35.181072,112.507271,204.130341,32.512051
478,0,-14.361706,315.730804,59.247017,49.555508,239.755615,99.892181,-42.709091,242.189255,42.551735,90.744759,199.859451,72.074631,98.181488,182.314194,35.229092,112.524902,204.480164,32.587952
479,0,-14.651485,315.982239,59.544151,49.550049,239.950760,100.122040,-42.795502,242.417496,42.907993,90.848595,200.504578,71.946785,98.195351,182.760757,35.037827,112.490707,204.983612,32.686371
480,0,-14.962923,316.165192,60.019485,49.448101,240.073181,100.388077,-43.010662,242.565445,43.209362,90.875465,201.022781,71.829758,98.282211,183.185089,35.063744,112.635063,205.732224,33.023346
481,0,-15.358224,316.324585,60.487545,49.213425,240.108429,100.665970,-43.242527,242.646439,43.484268,90.854675,201.520401,71.726952,98.353081,183.679825,35.171989,112.966858,206.497070,33.459644
482,0,-15.803585,316.394409,60.988789,48.786102,239.826569,101.065353,-43.527618,242.682770,43.680145,90.858192,201.968994,71.773758,98.354645,184.107819,35.345795,113.255333,207.335083,34.009941
483,0,-16.322052,316.399048,61.541836,48.417236,239.751450,101.354767,-43.836945,242.661530,43.876106,90.658287,202.299622,71.788284,98.397446,184.596756,35.464008,113.691330,208.332458,34.903580
484,0,-17.021271,316.314728,62.145760,48.042278,239.553589,101.757042,-44.233913,242.559692,44.106651,90.356888,202.581360,71.657219,98.599724,185.026581,35.882713,114.378899,209.272934,35.731522
485,0,-17.720806,316.086121,62.963604,47.564377,239.222015,102.297592,-44.638767,242.332458,44.376919,90.163834,202.883148,71.645477,98.580650,185.654922,35.870693,114.733238,210.303284,36.690338
486,0,-18.545053,315.732971,63.903378,47.021671,238.695267,103.023315,-45.143970,242.009125,44.798393,89.878128,203.122009,71.661133,98.633118,186.359924,36.164249,114.856674,211.576660,37.733727
487,0,-19.444139,315.258606,65.031326,46.355701,238.077576,103.890533,-45.748219,242.544495,45.313210,89.452148,203.280121,71.805557,98.738724,187.341782,36.291168,115.383293,212.501068,39.126453
488,0,-20.431515,314.649261,66.377846,45.636494,237.286896,104.862335,-46.330238,241.272369,45.984966,88.916481,203.232147,72.117943,98.910606,187.846161,37.001377,115.531303,213.662598,40.555141
489,0,-21.501223,313.906250,67.689445,44.843697,236.438904,106.045082,-46.880325,240.627609,46.644360,88.460632,202.989563,72.957733,98.896721,188.292343,37.997307,115.809738,214.626297,42.417942
490,0,-22.513176,313.041687,69.055916,43.849419,235.461227,107.461159,-47.392014,239.797531,47.327702,88.058685,202.779968,74.425507,99.208328,188.388321,39.739815,116.098030,215.207291,44.842484
491,0,-23.339764,312.283813,70.515045,42.660625,234.382446,108.930481,-47.912853,238.991806,48.041920,87.720421,202.243958,76.464935,99.590797,187.933929,42.092842,116.124222,215.307388,47.628365
492,0,-24.324593,310.825928,71.464973,41.490479,233.162659,110.532455,-48.425011,237.811935,48.774879,86.985428,201.477875,78.654228,99.886101,187.214722,44.815174,116.279945,214.949005,50.645954
493,0,-25.158287,309.512024,72.540054,40.283642,231.960007,112.438797,-49.133064,236.616745,49.645660,86.418938,200.542862,81.179436,99.927750,186.213181,47.790558,115.806694,214.228882,53.582752
494,0,-25.949913,308.022217,73.600502,39.042049,230.680054,114.545395,-49.633423,235.104996,50.792400,85.643089,199.251236,83.879303,99.577118,184.938553,50.782578,115.422173,212.873703,56.599720
495,0,-26.654478,306.351135,74.618202,37.743633,229.192108,116.875488,-50.252220,233.343567,52.025738,84.637909,197.621475,86.729889,98.830399,183.213425,53.809307,114.709885,210.971344,59.716244
496,0,-27.293690,304.453766,75.589989,36.545013,227.671463,119.315918,-50.855526,231.130325,53.699589,83.612068,195.692764,89.791954,98.005112,181.047150,57.088623,113.850273,208.632950,62.930569
497,0,-27.938286,302.224426,76.584030,35.287193,225.835251,121.928055,-51.506321,229.136734,55.344009,82.529716,193.493179,93.126610,97.251244,178.541031,60.620701,112.932846,205.863205,66.291946
498,0,-28.586300,299.693787,77.613586,33.986622,223.822418,124.603119,-52.254559,225.867981,57.251484,81.470535,191.057236,96.680634,96.476227,175.665237,64.406059,111.958344,202.770538,69.971611
499,0,-29.148697,296.749603,78.539261,32.660702,221.538361,127.299385,-52.137516,221.316956,59.584198,80.441635,188.269394,100.461517,95.741470,172.501663,68.439697,111.226807,199.055710,73.907478
500,0,-29.726473,293.406281,79.345879,31.366539,218.819611,130.058868,-53.049187,218.039703,61.311825,79.410126,185.066910,104.344727,95.006783,168.759323,72.704514,109.967857,195.397125,77.712502
501,0,-30.103048,289.621429,80.077950,29.971510,215.638779,132.624695,-54.149471,214.342514,63.101402,78.268623,181.302292,108.296761,94.366837,163.972427,77.136314,109.034119,190.844040,81.840439
502,0,-30.418547,285.407135,80.718948,28.608070,212.044800,135.180466,-55.239746,210.361710,64.708382,76.928162,176.990494,112.157478,93.270264,159.172653,81.314171,108.164711,185.856674,86.046631
503,0,-30.564619,280.773315,81.238380,27.145231,208.034195,137.584763,-56.286125,206.051895,66.141136,75.463142,172.096054,115.831108,91.968468,153.726456,85.303406,106.976738,180.237900,89.740028
504,0,-30.564209,275.777405,81.705452,25.748526,203.531311,139.722778,-57.294346,201.582336,67.419945,73.931953,166.674683,119.256981,90.716515,147.467712,89.724007,105.703125,174.131577,93.490311
505,0,-30.527758,270.495972,82.046623,24.412958,198.353226,141.626892,-58.112328,196.873154,68.689949,72.255180,160.735886,122.281616,89.223701,140.957596,93.314453,104.146774,167.210480,96.905190
506,0,-30.369165,264.922028,82.285728,23.054272,192.981735,143.215683,-58.877666,191.586334,69.886086,70.554680,154.379440,124.998085,87.689438,134.018585,96.461037,102.678062,159.825928,99.884422
507,0,-30.244589,259.247772,82.483124,21.767336,187.361328,144.484177,-59.728924,186.224075,70.950562,68.822060,147.673721,127.258209,85.735855,126.884697,99.086342,100.960182,151.774231,102.319618
508,0,-30.052963,253.468750,82.566101,20.611036,181.438309,145.467422,-60.494347,180.662506,71.767403,67.022629,140.701828,129.084015,84.034966,119.370598,101.120239,98.884171,144.026428,104.322784
509,0,-29.987934,247.652603,82.622856,19.566677,175.304993,146.109818,-61.101326,176.650726,72.267502,65.396065,133.667938,130.479446,82.667068,111.823738,103.128876,97.159225,135.813736,105.937241
510,0,-29.845804,241.768036,82.503479,18.571613,169.121246,146.513535,-62.014374,169.498001,72.413094,63.820244,126.663055,131.421814,80.943268,104.704918,104.297409,95.495964,127.411201,107.057930
511,0,-29.820461,235.894592,82.290901,17.725693,162.848755,146.627899,-62.626282,163.631531,72.621010,62.481300,119.802986,131.924301,79.507736,97.670189,104.812500,93.653976,119.931107,107.787674
512,0,-29.831297,230.020966,81.877121,16.924324,156.621353,146.438965,-63.275352,159.084396,72.596016,61.345818,113.180756,132.053757,78.664932,90.651886,105.310905,92.068520,112.467102,108.145836
513,0,-29.829327,224.199005,81.237099,16.186848,150.402420,145.972855,-63.853710,153.307892,72.202583,60.338310,106.517426,131.743713,77.369736,84.207855,105.178108,90.953186,105.386078,107.960602
514,0,-29.819138,218.417084,80.407951,15.582399,144.320190,145.161392,-64.491768,147.843170,71.379692,59.384903,100.259041,131.175751,76.446671,77.763618,104.668625,90.059944,98.646194,107.515839
515,0,-29.912439,212.701172,79.354645,15.027114,138.249557,144.112778,-65.177254,141.995331,70.609581,58.533958,94.023491,130.184586,75.598465,71.382591,103.925186,89.296143,92.283279,106.706253
516,0,-30.016125,207.173019,78.142151,14.556071,132.316849,142.743973,-65.533401,137.677750,69.037476,57.808533,87.793259,128.829285,74.698715,65.058273,102.580490,88.583618,86.103149,105.385300
517,0,-30.132540,201.777634,76.875832,14.174091,126.416298,141.159805,-66.274780,132.505661,67.866966,57.203609,81.521996,127.133774,74.044754,58.670677,101.053368,88.018906,80.269424,103.707710
518,0,-30.319576,196.552872,75.525856,13.903012,120.640282,139.292358,-67.257416,126.659843,67.114136,56.511234,75.457573,125.138847,73.088318,52.689968,99.061005,87.259689,74.268753,101.776169
519,0,-30.586908,191.545944,74.122292,13.641936,114.892731,137.167068,-68.014244,121.820053,65.829826,55.785789,69.530563,122.836098,72.216545,46.593098,96.966644,86.427719,68.365257,99.343826
520,0,-30.935358,186.736694,72.508766,13.392520,109.596573,134.969116,-68.877594,117.275452,64.505791,55.034069,63.829659,120.368439,71.147896,40.841850,94.528641,85.508583,62.647240,96.661278
521,0,-31.340797,182.106689,70.919037,13.046820,104.382423,132.648651,-69.917091,112.873352,63.163280,54.268169,58.375820,117.756836,70.329803,35.330479,91.818695,84.542610,57.193390,93.795570
522,0,-31.870920,177.702301,69.252579,12.659434,99.320129,130.231033,-70.750961,109.902069,61.056404,53.476490,53.165745,114.963081,69.122925,30.110149,89.276733,83.522797,52.037525,90.777214
523,0,-32.394192,173.484924,67.461853,12.058726,94.510910,127.780586,-72.051056,104.526093,60.032337,52.552525,48.152767,112.153557,67.752693,25.082943,86.511757,82.412071,46.841537,87.842422
524,0,-32.985153,169.487549,65.665382,11.316282,89.873116,125.382957,-73.315170,100.349304,58.434868,51.317913,43.320564,109.353294,66.421150,20.069160,83.639938,81.254066,42.120087,84.820175
525,0,-33.535225,165.790237,63.780018,10.398847,85.490952,123.034782,-74.023796,98.663399,55.684368,49.840248,38.595081,106.523209,64.717140,15.256128,80.829155,79.594078,37.469791,81.958908
526,0,-34.188488,162.474609,61.905056,9.373456,81.384323,120.581665,-75.615105,93.348953,54.533852,48.249508,34.182709,103.725883,62.727497,10.919485,77.923027,77.962463,32.747978,79.318642
527,0,-34.799507,159.171265,59.767460,8.294267,77.677635,118.142471,-76.640831,90.766441,52.348408,46.663609,30.072172,100.907387,60.792282,6.805583,74.964836,75.937340,28.098410,76.593201
528,0,-35.315338,156.995789,58.126839,7.328513,74.292099,115.644676,-77.860565,88.037865,50.344315,45.101341,26.393286,98.065826,58.870197,3.020319,72.124710,74.024002,24.017458,73.999496
529,0,-36.186916,154.047974,55.935246,6.413637,71.293739,113.135338,-78.964012,85.740631,48.382389,43.691658,23.203037,95.213547,57.212494,-0.217809,69.181503,72.027756,20.248003,71.051392
530,0,-37.088894,151.835815,53.932011,5.644864,68.761688,110.664612,-80.309845,82.873611,46.739590,42.440159,20.418728,92.332298,55.783276,-2.910688,66.328453,70.221062,17.034796,68.200211
531,0,-38.064026,149.932236,51.905109,4.924752,66.581268,108.200409,-81.327370,81.401871,44.780586,41.373783,18.145321,89.481834,54.571560,-5.129834,63.497253,68.948463,14.732083,65.101952
532,0,-39.089672,148.354340,49.913998,4.241770,64.851105,105.765015,-82.567818,79.795120,42.937160,40.551731,16.458614,86.667488,53.399120,-6.896734,60.400688,67.933571,13.166231,61.976673
533,0,-40.090893,147.123260,47.833740,3.553464,63.513645,103.373276,-83.563057,78.607117,40.969757,39.895031,15.249462,83.875206,52.429539,-8.121939,57.574387,67.072563,12.104611,58.893608
534,0,-41.219471,146.066269,45.664967,2.961878,62.598431,100.970100,-84.582130,77.642281,38.996284,39.434315,14.431486,81.219971,51.949581,-8.662601,54.461605,66.575226,11.354813,56.210602
535,0,-42.363129,145.356201,43.466576,2.438988,61.915405,98.644112,-85.740250,76.288902,37.070667,39.011082,13.938538,78.573570,51.357243,-8.989166,51.721561,65.977394,11.197382,53.199295
536,0,-43.482841,144.695389,41.297840,1.850934,61.398109,96.316238,-86.552208,76.003990,34.796722,38.620834,13.699073,75.942825,50.842266,-9.001437,48.635670,65.491882,11.040133,50.572868
537,0,-44.502792,144.279770,39.309296,1.276149,60.885036,93.967972,-87.594078,75.177002,32.856148,38.152500,13.517182,73.198624,50.351841,-9.062426,45.714462,64.973419,11.090479,47.734711
538,0,-45.615307,143.972916,37.369488,0.582328,60.365780,91.556435,-88.531212,75.090027,30.748016,37.549011,13.478398,70.196938,49.813702,-9.110125,42.687325,64.494415,11.426950,44.600124
539,0,-46.758484,143.843033,35.605907,-0.119707,60.007030,89.115784,-89.498039,75.328110,28.770779,36.961327,13.408970,67.265434,49.237186,-9.359630,39.875732,63.876404,11.738322,41.534489
540,0,-47.806751,143.761780,33.917835,-1.038620,59.958668,86.957718,-90.522888,75.164078,27.059973,36.486679,13.421057,66.513847,49.168209,-9.794130,39.685997,63.379192,11.951321,38.782948
541,0,-48.917580,143.841400,32.331493,-2.106583,60.123711,84.896255,-91.729279,74.961090,25.339666,35.651943,13.906969,66.271896,49.373432,-9.704327,39.685879,62.890076,12.116044,36.360752
542,0,-50.131634,143.969482,30.669352,-2.944526,60.449738,83.217232,-92.799286,76.193916,23.987707,35.321312,14.500770,65.644180,49.304325,-9.606300,39.583839,61.851513,12.654243,34.442398
543,0,-51.364479,144.176651,29.140232,-4.037499,60.931332,81.669174,-94.015808,75.292747,22.898909,34.783821,15.416409,65.268600,49.279903,-9.213975,39.677189,61.436333,13.475935,34.145988
544,0,-52.511559,144.469421,27.790495,-5.181619,61.492950,80.389778,-95.177902,76.339279,21.978916,34.137207,16.228848,64.873001,49.054665,-8.692972,39.637062,60.967632,14.314380,34.171997
545,0,-53.651737,144.803406,26.710943,-6.074160,62.039944,79.406197,-96.307526,76.504265,21.128441,33.515621,17.040478,64.465363,48.733337,-8.149369,39.660313,60.580376,14.998628,33.668133
546,0,-54.707958,145.146225,25.823290,-6.923765,62.600925,78.500954,-97.328087,76.636162,20.425192,32.916656,17.721806,64.085709,48.312073,-7.600588,39.591259,60.233280,15.836149,33.377415
547,0,-55.688492,145.405670,25.082497,-7.717060,63.071064,77.799446,-98.215332,76.929497,19.882542,32.342033,18.365133,63.715130,47.853870,-6.986163,39.527855,59.659206,16.572123,33.231930
548,0,-56.488846,145.759003,24.521057,-8.443868,63.482315,77.280312,-98.973991,77.177963,19.506378,31.835661,19.048550,63.356094,47.373600,-6.321354,39.397659,59.107254,17.140081,33.204002
549,0,-57.344090,145.996628,23.956373,-9.120679,63.995167,76.776527,-99.673981,77.379349,19.177746,31.285290,19.655851,63.108047,46.463203,-5.427021,39.129681,58.621319,17.563049,33.230087
550,0,-57.903820,146.214539,23.442356,-9.575162,64.491394,76.381477,-100.329910,77.702873,18.803993,30.791786,20.135256,62.898235,45.875580,-5.009243,39.095402,57.945381,18.053295,33.198524
551,0,-58.599121,146.460815,22.945993,-10.039798,64.892914,75.967789,-100.986290,78.044312,18.466761,30.265383,20.662220,62.613815,45.626076,-4.747009,39.107582,57.498650,18.396572,33.052631
552,0,-59.208561,146.572464,22.490938,-10.453317,65.227150,75.567513,-101.527382,78.184303,18.194870,29.874655,21.195896,62.342266,45.432964,-4.427202,39.121468,57.239326,18.671856,33.021584
553,0,-59.746914,146.673615,22.055704,-10.817326,65.554184,75.127571,-102.116905,78.360947,18.027065,29.585510,21.604475,62.128311,45.262318,-4.156310,39.075520,57.017361,18.958155,33.066174
554,0,-60.333778,146.709656,21.605452,-11.191844,65.822639,74.615349,-102.642578,78.529060,17.759262,29.342117,22.007521,61.888176,45.041397,-3.802039,39.009422,56.751640,19.184587,33.010460
555,0,-60.916027,146.737381,21.111063,-11.525198,66.020790,74.062744,-103.205696,78.591225,17.494457,29.130714,22.302267,61.609909,44.894646,-3.549101,38.927464,56.469261,19.397602,32.893944
556,0,-61.460129,146.737732,20.618092,-11.894291,66.183067,73.465050,-103.749603,78.526169,17.149916,28.910378,22.618624,61.368855,44.727627,-3.292284,38.878151,56.191578,19.594751,32.801395
557,0,-61.990318,146.724457,20.074610,-12.341688,66.245026,72.870819,-104.304832,78.320251,16.701450,28.629471,22.852402,61.113914,44.691742,-3.165569,38.895592,55.804440,20.021931,32.757118
558,0,-62.462234,146.598618,19.481798,-12.824891,66.276024,72.266258,-104.831245,78.341965,16.221056,28.296032,22.991531,60.890381,44.449718,-2.992515,38.806042,55.587936,19.959366,32.577988
559,0,-62.912666,146.412704,18.798140,-13.346589,66.231812,71.714653,-105.267609,78.141953,15.582224,27.896114,23.088194,60.682457,44.297039,-2.927748,38.802395,55.245144,20.042465,32.543419
560,0,-63.351639,146.380966,18.218863,-13.870952,66.127838,71.104462,-105.764435,78.117020,15.074759,27.470728,23.081438,60.486622,44.134266,-2.949565,38.803055,54.917274,20.044361,32.529297
561,0,-63.749454,146.175064,17.585054,-14.398720,66.047630,70.456520,-106.226898,78.086349,14.486744,27.071337,23.156525,60.283051,43.973427,-2.966078,38.823551,54.621857,20.072493,32.530285
562,0,-64.179008,146.086014,17.095709,-14.897325,65.890053,69.781029,-106.677307,77.950386,13.932085,26.748238,23.212175,60.075962,43.862236,-2.956880,38.819004,54.353699,20.158028,32.455208
563,0,-64.682236,145.882156,16.549694,-15.419237,65.791847,69.142288,-107.127113,77.698540,13.543922,26.393984,23.306858,59.848389,43.728786,-2.891278,38.827915,54.054897,20.227287,32.373302
564,0,-65.190933,145.760773,16.136412,-15.909815,65.817406,68.603920,-107.557426,77.049118,13.280285,26.088926,23.532595,59.641964,43.818829,-2.985775,38.839870,53.736034,20.320206,32.281761
565,0,-65.783714,145.664459,15.720621,-16.353605,65.838203,68.155273,-108.047844,76.443687,12.954597,25.828606,23.754543,59.446098,43.533642,-2.624607,38.834244,53.597218,20.330328,32.221554
566,0,-66.298302,145.503601,15.316597,-16.811422,65.911751,67.711761,-108.442650,75.983795,12.968619,25.570599,23.995188,59.225449,43.549084,-2.597042,38.838856,53.357887,20.515968,32.160488
567,0,-66.866882,145.379776,14.941333,-17.229385,65.971962,67.312798,-108.915298,75.650269,12.863528,25.348391,24.242699,59.055954,43.253132,-2.228692,38.709309,53.099533,20.663656,32.106152
568,0,-67.464516,145.278336,14.485709,-17.591211,66.103615,66.977562,-110.806252,80.142181,11.940682,25.124218,24.511410,58.857956,43.052467,-1.883430,38.620605,52.760117,20.866026,32.153114
569,0,-67.979691,145.249191,14.033932,-18.058859,66.339088,66.628998,-110.793633,77.278969,12.395584,24.923298,24.923328,58.642387,42.956139,-1.494712,38.596363,52.048367,21.446779,31.965267
570,0,-68.512665,145.132996,13.498816,-18.467949,66.556046,66.341034,-111.021729,76.203743,11.924800,24.666693,25.289257,58.416431,42.691620,-1.254365,38.535488,51.712925,21.642370,32.001190
571,0,-69.101166,144.983185,12.945929,-18.908365,66.782394,66.068352,-111.979790,76.998856,11.920891,24.263857,25.513170,58.268101,42.376663,-1.096525,38.437672,51.490379,21.605270,31.905088
572,0,-69.552277,144.996277,12.349333,-19.380722,67.113663,65.726463,-112.579315,77.559486,11.429202,23.827177,25.743862,58.097305,42.063751,-1.019542,38.403412,51.127434,21.861597,31.872972
573,0,-70.294991,144.077652,11.116709,-19.838961,67.502151,65.312325,-112.995537,77.457352,11.065976,23.444649,26.028221,57.898865,41.542084,-0.807220,38.336803,50.788410,22.039627,31.793415
574,0,-70.556358,144.677551,10.480025,-20.121580,68.038658,64.705894,-113.172920,76.856071,10.478266,23.093702,26.480940,57.575642,41.233612,-0.540322,38.320606,50.497158,22.342058,31.665180
575,0,-70.967644,144.549942,9.191985,-20.059967,68.594414,63.889503,-113.665962,77.083771,10.411605,22.951265,27.156778,57.164768,41.032234,-0.104394,38.202229,50.310600,22.807810,31.471468
576,0,-71.272842,144.450974,7.740089,-20.124191,69.357414,63.031433,-113.921234,77.254791,9.726727,22.994497,27.879843,56.659241,41.068146,0.516222,38.002522,50.174290,23.344790,31.170515
577,0,-71.690849,143.940582,6.176510,-20.272875,69.982056,62.274792,-114.118118,77.479019,8.502323,23.023598,28.600313,56.178352,41.146282,1.068928,37.881828,50.066216,23.696871,30.984037
578,0,-71.789192,144.006897,5.133387,-20.521183,70.457687,61.663353,-114.252777,77.407738,8.220089,22.816040,29.068558,55.813126,40.923637,1.466026,37.743298,49.859135,23.860409,30.968943
579,0,-71.877480,144.012024,4.299401,-20.798882,70.801079,61.195927,-114.307388,77.447037,7.613386,22.474249,29.252571,55.598698,40.394913,1.764219,37.596092,49.617676,23.959715,31.002930
580,0,-71.924042,144.035706,3.734408,-21.053774,70.999451,60.908134,-114.308304,77.634041,7.013290,22.154728,29.307217,55.478092,39.970848,1.829628,37.465988,49.404560,24.005341,31.053343
581,0,-71.955795,144.049149,3.407067,-21.200453,71.057663,60.718052,-114.329498,77.661148,6.772128,21.944118,29.340683,55.432575,39.874313,1.791514,37.525776,48.965103,24.283787,30.921881
582,0,-71.994125,144.029129,3.257423,-21.261208,71.088943,60.665291,-114.305504,77.672508,6.687054,21.890543,29.288025,55.389858,39.805279,1.833168,37.519253,48.894161,24.234303,30.933390
583,0,-71.931450,143.953812,3.257166,-21.148493,71.051842,60.708092,-114.300446,77.572639,6.824934,21.992331,29.298122,55.413631,39.853233,1.807642,37.509296,48.982948,24.161934,30.979744
584,0,-71.915909,143.925644,3.274235,-21.042667,71.074173,60.817711,-114.293938,77.377151,7.098988,22.147625,29.285360,55.489182,39.954201,1.803497,37.500767,49.026123,24.086197,31.015545
585,0,-71.805603,143.882523,3.378101,-20.831972,71.094604,60.992332,-114.180862,77.419655,7.356306,22.364567,29.257938,55.553394,40.081642,1.815137,37.537254,49.137672,23.981976,31.070030
586,0,-71.704361,143.902573,3.503794,-20.581331,71.172195,61.158859,-114.064117,77.480225,7.606198,22.558052,29.291275,55.621857,40.233616,1.828759,37.564102,49.233143,23.891645,31.147320
587,0,-71.525009,143.950089,3.589486,-20.325933,71.242104,61.300930,-113.887589,77.362396,7.848055,22.760666,29.361076,55.684078,40.371750,1.901657,37.576981,49.310482,23.844809,31.198935
588,0,-71.368080,144.006409,3.653901,-20.095629,71.355103,61.414288,-113.721138,77.496956,7.974855,22.960239,29.426485,55.720268,40.478786,1.942047,37.657524,49.384453,23.854076,31.223503
589,0,-71.140030,144.098175,3.659744,-19.939117,71.489922,61.498627,-113.560104,77.575974,8.033166,23.116549,29.479858,55.757393,40.615490,2.038555,37.639923,49.428417,23.828735,31.246424
590,0,-70.965202,144.209473,3.624234,-19.779110,71.655228,61.548889,-113.383797,77.810822,7.981187,23.185757,29.565514,55.795532,40.516323,2.130996,37.607784,49.465672,23.853138,31.290472
591,0,-70.854713,144.330917,3.563230,-19.689754,71.798477,61.594807,-113.281677,77.799232,7.991732,23.248537,29.595373,55.815685,40.594414,2.162527,37.622005,49.465073,23.901045,31.301197
592,0,-70.769745,144.391678,3.471057,-19.621061,71.897377,61.595177,-113.190247,77.988441,7.901553,23.270309,29.676208,55.823177,40.495525,2.288444,37.648514,49.477867,23.936434,31.323551
593,0,-70.628372,144.456451,3.366878,-19.594454,71.984161,61.576698,-113.128311,78.012123,7.880473,23.290041,29.712141,55.822418,40.552238,2.273687,37.671001,49.436577,23.982880,31.321362
594,0,-70.541954,144.498993,3.204968,-19.598942,72.088539,61.564064,-113.096687,78.096184,7.753870,23.243301,29.730015,55.806801,40.529449,2.239706,37.743923,49.658363,23.768410,31.321459
595,0,-70.494003,144.474487,2.976822,-19.619944,72.113235,61.492798,-113.044807,78.249077,7.570908,23.196991,29.766651,55.802204,40.372528,2.365018,37.669388,49.389881,24.091511,31.356361
596,0,-70.492928,144.463150,2.748501,-19.689795,72.138496,61.444866,-113.051895,78.313568,7.440851,23.120604,29.744616,55.788696,40.273106,2.338732,37.649719,49.314999,24.106419,31.325359
597,0,-70.411911,144.434082,2.499107,-19.801844,72.208351,61.393467,-113.014847,78.282944,7.329796,22.975918,29.730177,55.790806,40.086536,2.329715,37.615456,49.262566,24.114435,31.314280
598,0,-70.405090,144.355713,2.288713,-19.892422,72.202347,61.284081,-113.057724,78.235085,7.190129,22.891567,29.663273,55.724091,39.982510,2.267614,37.595085,49.149384,24.111982,31.315847
599,0,-70.447021,144.234009,2.071205,-19.994131,72.200592,61.173443,-113.150116,78.234833,7.032666,22.827251,29.678999,55.703648,39.895721,2.250088,37.548527,49.112610,24.130602,31.301811
600,0,-70.509064,144.090530,1.857016,-20.100908,72.180145,61.096752,-113.133759,78.117828,6.900325,22.764484,29.647041,55.673344,39.859795,2.253433,37.531612,49.022335,24.148485,31.273556
601,0,-70.546326,144.024323,1.644408,-20.159594,72.205154,61.017658,-113.224098,78.042778,6.808702,22.675852,29.702978,55.624279,40.074726,1.961197,37.577339,49.002094,24.177608,31.253372
602,0,-70.607979,143.930893,1.465780,-20.254881,72.211617,60.935780,-113.302971,77.998306,6.705935,22.636732,29.708704,55.601284,39.772923,2.254113,37.465088,48.988842,24.178381,31.239847
603,0,-70.678642,143.836823,1.326924,-20.289757,72.221725,60.869720,-113.345772,77.994118,6.592755,22.657101,29.746941,55.585480,39.747261,2.263373,37.422752,49.283852,23.981218,31.202246
604,0,-70.723793,143.799118,1.219654,-20.341528,72.277596,60.803341,-113.381783,77.739098,6.613654,22.619671,29.800974,55.561615,39.970242,2.065720,37.506912,49.259571,23.991381,31.196632
605,0,-70.764160,143.787201,1.061243,-20.358652,72.296967,60.739021,-113.361847,77.778259,6.563910,22.626669,29.853333,55.529781,39.968754,2.130108,37.547638,49.001057,24.294735,31.158440
606,0,-70.811859,143.744049,0.987192,-20.338963,72.346497,60.689251,-113.385658,77.816788,6.481062,22.624092,29.898825,55.507999,40.055565,2.249196,37.484123,48.969982,24.368227,31.149353
607,0,-70.808624,143.735077,0.893266,-20.458508,72.532059,60.613098,-113.385544,77.808479,6.482880,22.647499,29.990261,55.475651,40.207020,2.074255,37.639896,48.980034,24.426044,31.157965
608,0,-70.858093,143.661560,0.814108,-20.297987,72.408386,60.621834,-113.334557,77.727455,6.459723,22.675156,30.005207,55.462936,40.261749,2.079688,37.715839,49.274544,24.173450,31.155373
609,0,-70.808815,143.637436,0.766762,-20.268087,72.388626,60.651031,-113.369957,77.613533,6.484628,22.718801,30.016998,55.487068,40.317436,2.103902,37.734364,49.319115,24.219072,31.141602
610,0,-70.760818,143.600861,0.728745,-20.223103,72.417976,60.617844,-113.371758,77.615135,6.484791,22.753033,30.065937,55.473736,40.384617,2.083308,37.797230,49.054680,24.468752,31.138502
611,0,-70.742989,143.554779,0.647400,-20.189089,72.458366,60.571465,-113.314758,77.473465,6.552056,22.807489,30.096312,55.480709,40.496956,2.067715,37.842495,49.389263,24.228294,31.131918
612,0,-70.749069,143.540756,0.602077,-20.144661,72.465050,60.556698,-113.299332,77.509293,6.504629,22.850700,30.144650,55.480259,40.570663,2.056547,37.874001,49.400200,24.260431,31.114058
613,0,-70.748878,143.528244,0.546255,-20.259251,72.609894,60.509254,-113.337418,77.507713,6.506819,22.854601,30.179394,55.465824,40.568195,2.027822,37.897003,49.399719,24.256189,31.120911
614,0,-70.758926,143.517273,0.476395,-20.257275,72.654564,60.453339,-113.375664,77.504768,6.507685,22.862047,30.179432,55.448002,40.601162,2.007311,37.897686,49.419334,24.264336,31.121061
615,0,-70.724815,143.526169,0.368015,-20.252811,72.647659,60.422722,-113.362534,77.543564,6.425180,22.852638,30.193192,55.404415,40.420971,2.193941,37.616852,49.665077,24.020157,31.063871
616,0,-70.740898,143.491013,0.256584,-20.240479,72.686722,60.344978,-113.374619,77.588188,6.372130,22.786598,30.243675,55.348587,40.522991,2.083180,37.767460,49.648529,24.056482,31.038679
617,0,-70.779915,143.541275,0.203492,-20.298555,72.715981,60.289108,-113.505417,77.631378,6.290998,22.735619,30.244450,55.314373,40.444462,2.075364,37.727436,49.606293,24.113661,30.992239
618,0,-70.701286,143.578369,0.167791,-20.363482,72.707672,60.231365,-113.506668,77.631088,6.291464,22.635670,30.260141,55.281719,40.255955,2.141210,37.671501,49.549534,24.155800,30.982016
619,0,-70.744156,143.618469,0.110191,-20.399227,72.732681,60.139164,-113.540199,77.705696,6.193904,22.558535,30.238796,55.241402,40.222557,2.146594,37.674473,49.520386,24.181610,30.977840
620,0,-70.756355,143.637466,0.026867,-20.431639,72.739456,60.119453,-113.635735,77.750473,6.110914,22.519552,30.259823,55.183350,40.169704,2.113711,37.695007,49.480904,24.212931,30.940531
621,0,-70.769424,143.671829,0.024598,-20.465416,72.738091,60.063007,-113.584572,77.916237,6.035934,22.493368,30.311049,55.141277,40.124500,2.134721,37.643520,49.435387,24.236443,30.932932
622,0,-70.764923,143.700119,0.019646,-20.476297,72.750519,60.040867,-113.657501,77.812485,6.059467,22.448187,30.283947,55.125988,40.034042,2.191049,37.621834,49.417297,24.275457,30.891329
