Trajectories
100
,,sano:Uln,,,sano:MPH3,,,sano:Rad,,,sano:PIP3,,,sano:DIP3,,,sano:DIP4,,,
Frame,Sub Frame,X,Y,Z,X,Y,Z,X,Y,Z,X,Y,Z,X,Y,Z,X,Y,Z
,,mm,mm,mm,mm,mm,mm,mm,mm,mm,mm,mm,mm,mm,mm,mm,mm,mm,mm
1,0,469.678894,-122.772346,-127.294273,434.289551,-222.940598,-124.867088,388.280273,-125.352097,-134.233093,423.974487,-271.137787,-162.479004,412.897308,-285.386414,-195.620071,443.645142,-274.258728,-204.228653
2,0,469.405334,-122.562065,-127.504929,434.296326,-222.947281,-124.883087,388.280334,-125.352066,-134.233124,423.981323,-271.238892,-162.547882,412.929199,-285.411743,-195.650589,443.669464,-274.254486,-204.244568
3,0,469.498108,-122.712456,-127.286880,434.304871,-222.955841,-124.889275,388.271759,-125.366104,-134.237457,423.993713,-271.273804,-162.556091,412.930328,-285.416779,-195.656723,443.733917,-274.259857,-204.272293
4,0,469.737762,-122.920067,-127.129601,434.293732,-222.961395,-124.889702,388.252899,-125.381706,-134.246567,424.022369,-271.260040,-162.550674,412.939331,-285.414886,-195.678177,443.734039,-274.263184,-204.277634
5,0,469.667877,-122.806496,-127.310272,434.312378,-222.974899,-124.886688,388.677765,-125.308334,-134.453995,424.020844,-271.251556,-162.558014,412.939667,-285.414642,-195.678375,443.740082,-274.256592,-204.300552
6,0,469.486176,-122.717064,-127.305031,434.301300,-222.986908,-124.901031,388.312439,-125.384155,-134.264008,423.979309,-271.255402,-162.585938,412.934692,-285.413513,-195.709702,443.736969,-274.239716,-204.306290
7,0,469.681915,-122.882660,-127.158272,434.268890,-222.969604,-124.938065,388.328064,-125.380470,-134.269989,423.973969,-271.237671,-162.596558,412.937256,-285.424011,-195.701660,443.730560,-274.234680,-204.313095
8,0,469.474762,-122.722641,-127.333908,434.288757,-222.967316,-124.929161,388.319397,-125.361305,-134.315933,423.945068,-271.254242,-162.587967,412.930878,-285.410614,-195.714706,443.662720,-274.258209,-204.329391
9,0,469.442169,-122.721748,-127.330376,434.270142,-222.965958,-124.918289,388.309143,-125.358147,-134.326584,423.962891,-271.253418,-162.554031,412.917633,-285.402008,-195.713943,443.659454,-274.263123,-204.301697
10,0,469.378448,-122.608887,-127.514618,434.264648,-222.963898,-124.919418,388.312286,-125.356255,-134.327377,423.928009,-271.254852,-162.564423,412.913483,-285.425415,-195.699295,443.662964,-274.278748,-204.294174
11,0,469.606659,-122.830917,-127.242310,434.271362,-222.971802,-124.903084,388.317566,-125.358925,-134.315857,423.937958,-271.247223,-162.557175,412.903442,-285.426147,-195.698776,443.639221,-274.294495,-204.292358
12,0,469.542542,-122.733330,-127.390373,434.262054,-222.985214,-124.893623,388.316162,-125.373421,-134.364014,423.938232,-271.159576,-162.532776,412.915100,-285.427856,-195.678696,443.648651,-274.302917,-204.286987
13,0,469.596039,-122.809372,-127.264786,434.257233,-222.984512,-124.902908,388.302948,-125.358612,-134.334259,423.950409,-271.233093,-162.580200,412.931396,-285.406281,-195.703110,443.657471,-274.281128,-204.291351
14,0,469.597961,-122.805801,-127.270210,434.281158,-222.963928,-124.929222,388.340240,-125.374153,-134.353790,423.978577,-271.171082,-162.511032,412.930145,-285.411957,-195.703278,443.669739,-274.284424,-204.295074
15,0,469.419189,-122.626839,-127.482979,434.293823,-222.971725,-124.905640,388.345703,-125.364693,-134.333618,423.987274,-271.212616,-162.581558,412.934479,-285.420868,-195.700333,443.737122,-274.239410,-204.298782
16,0,469.561768,-122.727272,-127.403183,434.310760,-222.973007,-124.908546,388.318756,-125.362694,-134.297516,424.003906,-271.218536,-162.569427,413.011108,-285.392914,-195.716599,443.741852,-274.241028,-204.309891
17,0,469.588989,-122.704025,-127.406372,434.351318,-222.937103,-124.932938,388.388702,-125.379410,-134.332977,424.033203,-271.136444,-162.564606,413.021881,-285.393372,-195.742950,443.756805,-274.217651,-204.319290
18,0,469.598724,-122.698616,-127.428886,434.362396,-222.945465,-124.943626,388.394012,-125.366348,-134.289856,424.073822,-271.190460,-162.577026,413.072723,-285.391479,-195.727615,443.796234,-274.226715,-204.317322
19,0,469.684967,-122.764526,-127.304047,434.380249,-222.958099,-124.932602,388.332031,-125.371071,-134.260880,424.124786,-271.120087,-162.565948,413.088562,-285.389832,-195.740509,443.842163,-274.194153,-204.320221
20,0,469.658234,-122.700706,-127.423676,434.397797,-222.967468,-124.942909,388.363586,-125.363754,-134.287415,424.123505,-271.186981,-162.581131,413.137634,-285.364197,-195.751694,443.846100,-274.175568,-204.343475
21,0,469.645081,-122.703407,-127.423882,434.386688,-222.958527,-124.914925,388.366241,-125.358116,-134.277832,424.144745,-271.176086,-162.562103,413.134430,-285.366211,-195.756927,443.811615,-274.185120,-204.360565
22,0,469.650085,-122.705887,-127.421440,434.397552,-222.949753,-124.936775,388.364044,-125.361549,-134.289963,424.125549,-271.189331,-162.566391,413.118652,-285.359375,-195.705475,443.806488,-274.168060,-204.349762
23,0,469.660767,-122.705925,-127.409714,434.362427,-222.934769,-124.909897,388.383331,-125.359375,-134.296860,424.126251,-271.177277,-162.579041,413.112976,-285.354889,-195.693359,443.793365,-274.186462,-204.313461
24,0,469.666748,-122.710541,-127.398521,434.391510,-222.924484,-124.912735,388.767639,-125.317291,-134.478256,424.085083,-271.171600,-162.552429,413.110748,-285.352112,-195.698715,443.750000,-274.200409,-204.308914
25,0,469.691559,-122.798538,-127.248390,434.336243,-222.920135,-124.919510,388.773132,-125.316994,-134.469971,424.062592,-271.167023,-162.577393,413.076996,-285.343262,-195.717575,443.755371,-274.213806,-204.271988
26,0,469.632538,-122.732788,-127.324715,434.335510,-222.932861,-124.903053,388.452972,-125.342728,-134.347397,424.077393,-271.162842,-162.588257,413.117584,-285.333313,-195.728516,443.752197,-274.191925,-204.293625
27,0,469.603119,-122.714546,-127.343994,434.335083,-222.925705,-124.917679,388.425140,-125.320557,-134.337265,424.084656,-271.167450,-162.586639,413.121704,-285.326477,-195.748337,443.752502,-274.164307,-204.302536
28,0,469.640533,-122.810539,-127.245125,434.343201,-222.908539,-124.945335,388.704559,-125.278175,-134.451721,424.086212,-271.159088,-162.590347,413.087860,-285.349396,-195.754684,443.737549,-274.147797,-204.334061
29,0,469.664276,-122.764694,-127.228363,434.346252,-222.919785,-124.927696,388.691071,-125.282990,-134.490570,424.075317,-271.161285,-162.606293,413.077271,-285.343018,-195.765717,443.656769,-274.147797,-204.362839
30,0,469.471222,-122.631966,-127.344635,434.315247,-222.920471,-124.900780,388.410004,-125.316711,-134.363586,424.043243,-271.154724,-162.611450,413.042572,-285.311951,-195.744705,443.635895,-274.128967,-204.352722
31,0,469.599274,-122.762123,-127.232986,434.278046,-222.910889,-124.904205,388.387878,-125.297043,-134.364349,424.036255,-271.147156,-162.600769,413.043152,-285.314941,-195.730087,443.671661,-274.111328,-204.316956
32,0,469.437286,-122.667900,-127.330986,434.272552,-222.890076,-124.899902,388.389282,-125.296471,-134.364395,424.035767,-271.163025,-162.583527,413.045441,-285.306976,-195.746902,443.677917,-274.130798,-204.286301
33,0,469.384949,-122.626678,-127.360153,434.294769,-222.879791,-124.872055,388.668304,-125.262871,-134.490402,424.045258,-271.140137,-162.551300,413.021332,-285.289886,-195.724670,443.669037,-274.130096,-204.280594
34,0,469.423981,-122.645790,-127.323586,434.268555,-222.863144,-124.858955,388.409302,-125.283287,-134.363449,424.003845,-271.134247,-162.553818,413.015411,-285.291656,-195.717484,443.652130,-274.108246,-204.270676
35,0,469.368591,-122.624374,-127.304596,434.239990,-222.853256,-124.858994,388.383240,-125.274391,-134.368896,424.015656,-271.122711,-162.527557,412.999359,-285.284973,-195.700577,443.642578,-274.086792,-204.278000
36,0,469.381531,-122.643806,-127.281830,434.223663,-222.856445,-124.854156,388.341675,-125.248032,-134.345490,423.988739,-271.095917,-162.539368,412.994934,-285.268127,-195.700836,443.588501,-274.051636,-204.276917
37,0,469.374298,-122.623512,-127.304672,434.238129,-222.856110,-124.843643,388.353821,-125.290054,-134.336166,423.991577,-271.094513,-162.544479,413.004761,-285.241058,-195.703522,443.555908,-274.054932,-204.305984
38,0,469.401276,-122.650505,-127.271904,434.229034,-222.842148,-124.891235,388.370483,-125.276581,-134.367844,423.990845,-271.091827,-162.550537,413.043701,-285.224640,-195.727386,443.540771,-274.026581,-204.331390
39,0,469.378418,-122.629807,-127.294197,434.184296,-222.868820,-124.875206,388.350433,-125.285965,-134.345108,423.999115,-271.109100,-162.562378,413.024017,-285.243927,-195.737808,443.487854,-274.024689,-204.348053
40,0,469.372528,-122.628014,-127.292648,434.207458,-222.876251,-124.886917,388.655609,-125.245735,-134.493851,424.009613,-271.112213,-162.576172,413.008911,-285.259644,-195.735016,443.483612,-274.027496,-204.366974
41,0,469.372528,-122.651596,-127.284828,434.195404,-222.875717,-124.884209,388.373688,-125.284821,-134.376877,423.998596,-271.122589,-162.598358,413.020813,-285.266388,-195.747574,443.451050,-274.065643,-204.370972
42,0,469.375580,-122.659088,-127.271622,434.210327,-222.894165,-124.873940,388.386169,-125.310738,-134.384872,424.012115,-271.140747,-162.577774,413.047668,-285.254150,-195.740051,443.503082,-274.033142,-204.393341
43,0,469.390198,-122.671402,-127.289635,434.189056,-222.916916,-124.862930,388.380341,-125.315147,-134.372467,424.029175,-271.134277,-162.599091,413.052856,-285.263245,-195.768158,443.513672,-274.050995,-204.397308
44,0,469.378876,-122.687263,-127.281967,434.214508,-222.892578,-124.888573,388.384766,-125.311699,-134.361359,424.028198,-271.139099,-162.607300,413.075470,-285.284637,-195.752502,443.546906,-274.062958,-204.387344
45,0,469.397369,-122.671333,-127.291458,434.201569,-222.904602,-124.880966,388.340851,-125.325340,-134.339218,424.040192,-271.145874,-162.589294,413.102417,-285.265564,-195.730057,443.554321,-274.061951,-204.394089
46,0,469.428955,-122.675163,-127.299889,434.222626,-222.915359,-124.885872,388.358795,-125.311699,-134.357422,424.035217,-271.141205,-162.590622,413.095581,-285.290405,-195.732880,443.544708,-274.053589,-204.396347
47,0,469.402710,-122.684372,-127.298653,434.227356,-222.929337,-124.865608,388.670532,-125.297752,-134.489273,424.052551,-271.055267,-162.561371,413.101898,-285.292053,-195.743378,443.559357,-274.083435,-204.372253
48,0,469.433380,-122.695610,-127.284409,434.254272,-222.908020,-124.882675,388.384064,-125.311256,-134.361801,424.046814,-271.134216,-162.569305,413.085815,-285.281860,-195.722488,443.559113,-274.087250,-204.354370
49,0,469.356903,-122.587334,-127.469185,434.264435,-222.893188,-124.879570,388.375488,-125.331818,-134.360580,424.050690,-271.137665,-162.549988,413.091614,-285.307220,-195.712540,443.576691,-274.109985,-204.324860
50,0,469.356323,-122.587486,-127.468956,434.268219,-222.901337,-124.899895,388.412720,-125.283432,-134.350723,424.049652,-271.138153,-162.521759,413.095703,-285.313782,-195.707550,443.587982,-274.132507,-204.313507
51,0,469.546112,-122.689423,-127.348991,434.297150,-222.914566,-124.866837,388.700928,-125.274483,-134.470642,424.056427,-271.146057,-162.549515,413.066925,-285.308746,-195.695465,443.610596,-274.147675,-204.293610
52,0,469.467346,-122.649666,-127.350914,434.286957,-222.922318,-124.840591,388.415649,-125.302124,-134.366165,424.056946,-271.141266,-162.534302,413.061829,-285.305725,-195.687164,443.655914,-274.156006,-204.252869
53,0,469.461365,-122.658890,-127.343788,434.322479,-222.921158,-124.853180,388.693390,-125.249489,-134.481384,424.047028,-271.134399,-162.546005,413.062500,-285.323303,-195.694397,443.660278,-274.157928,-204.249283
54,0,469.454376,-122.651070,-127.346558,434.291199,-222.876343,-124.882416,388.692749,-125.244156,-134.480713,424.043182,-271.144165,-162.526489,413.063202,-285.307831,-195.687469,443.682800,-274.160889,-204.240097
55,0,469.474976,-122.632492,-127.339020,434.280334,-222.882645,-124.859039,388.407227,-125.282127,-134.364105,424.032532,-271.131195,-162.526505,413.058044,-285.306641,-195.689423,443.680573,-274.144928,-204.244156
56,0,469.405090,-122.545265,-127.487976,434.281738,-222.895081,-124.883911,388.405701,-125.276817,-134.385529,424.026215,-271.132538,-162.536118,413.021332,-285.294739,-195.706680,443.676880,-274.141022,-204.245865
57,0,469.405457,-122.545708,-127.487617,434.274536,-222.901489,-124.866730,388.402313,-125.283287,-134.370239,424.021698,-271.125458,-162.564407,413.015289,-285.296265,-195.689331,443.674347,-274.142273,-204.250656
58,0,469.574341,-122.670074,-127.363174,434.280701,-222.872223,-124.886322,388.690552,-125.233383,-134.504059,424.025940,-271.122040,-162.529053,412.998749,-285.267303,-195.703094,443.669678,-274.138428,-204.257370
59,0,469.474274,-122.618454,-127.361031,434.279907,-222.850998,-124.926636,388.687195,-125.231651,-134.514847,424.000916,-271.116821,-162.587326,412.992676,-285.263916,-195.705063,443.626099,-274.120605,-204.274826
60,0,469.410645,-122.551758,-127.478409,434.263397,-222.856277,-124.898659,388.450470,-125.253693,-134.405167,423.998627,-271.104889,-162.552551,412.994110,-285.264130,-195.701981,443.662140,-274.115723,-204.262039
61,0,469.406647,-122.541672,-127.494095,434.263885,-222.845612,-124.930443,388.689575,-125.236359,-134.501282,423.973267,-271.104218,-162.559448,412.983612,-285.253204,-195.709732,443.656830,-274.112915,-204.268326
62,0,469.408508,-122.556152,-127.471474,434.266205,-222.856750,-124.886307,388.691010,-125.234932,-134.502777,423.991364,-271.093170,-162.551178,412.965637,-285.256378,-195.710815,443.662262,-274.117584,-204.265656
63,0,469.429291,-122.553673,-127.473785,434.275970,-222.846451,-124.927803,388.690308,-125.233948,-134.503525,423.996460,-271.100739,-162.554703,412.977142,-285.278564,-195.706131,443.662231,-274.114044,-204.262573
64,0,469.428101,-122.552078,-127.475929,434.272034,-222.859146,-124.905617,388.691132,-125.233871,-134.502060,423.994354,-271.118378,-162.553085,412.984863,-285.281830,-195.697876,443.676727,-274.119995,-204.277420
65,0,469.482391,-122.643509,-127.333893,434.267914,-222.851517,-124.919350,388.689209,-125.235352,-134.502838,423.991028,-271.115143,-162.586868,412.960968,-285.273987,-195.731934,443.679504,-274.114349,-204.304001
66,0,469.404907,-122.546356,-127.487091,434.271484,-222.860916,-124.901581,388.688629,-125.250473,-134.490417,423.976227,-271.130493,-162.556381,412.953644,-285.274414,-195.712280,443.666382,-274.112610,-204.287781
67,0,469.572693,-122.674644,-127.356720,434.291412,-222.872589,-124.915901,388.408600,-125.284210,-134.362320,423.977661,-271.128632,-162.566269,412.942261,-285.272491,-195.690979,443.660736,-274.112946,-204.277344
68,0,469.416901,-122.551292,-127.489464,434.287567,-222.873550,-124.918633,388.399109,-125.281929,-134.374634,423.935760,-271.117035,-162.579788,412.931519,-285.290009,-195.707336,443.682770,-274.129822,-204.298126
69,0,469.466400,-122.629471,-127.378731,434.282379,-222.889374,-124.899025,388.403198,-125.278946,-134.384369,423.951752,-271.138916,-162.582657,412.923737,-285.288513,-195.712250,443.642120,-274.153198,-204.315964
70,0,469.392273,-122.588608,-127.500343,434.287170,-222.854630,-124.931206,388.397064,-125.278893,-134.374527,423.948273,-271.131104,-162.585678,412.985992,-285.284058,-195.719131,443.635742,-274.171631,-204.316116
71,0,469.390533,-122.569817,-127.486633,434.262543,-222.880539,-124.899681,388.396790,-125.283508,-134.360474,423.983398,-271.129578,-162.545609,412.939087,-285.292786,-195.728043,443.635620,-274.133118,-204.314835
72,0,469.537598,-122.686310,-127.374664,434.267303,-222.870026,-124.921097,388.365479,-125.286308,-134.357101,423.963501,-271.138763,-162.553635,412.925415,-285.287537,-195.708313,443.633362,-274.151611,-204.285950
73,0,469.425415,-122.637177,-127.356995,434.249725,-222.869202,-124.928413,388.357544,-125.281036,-134.370132,423.917267,-271.127838,-162.585281,412.913361,-285.283325,-195.701691,443.636047,-274.156464,-204.284927
74,0,469.379517,-122.570435,-127.464218,434.223511,-222.863022,-124.928154,388.361176,-125.283226,-134.364624,423.920624,-271.141083,-162.573669,412.907471,-285.275696,-195.703781,443.618774,-274.168488,-204.287613
75,0,469.381744,-122.570473,-127.463791,434.220947,-222.891281,-124.905624,388.321777,-125.302124,-134.366470,423.917206,-271.128357,-162.585800,412.915771,-285.281311,-195.699844,443.626312,-274.153168,-204.309662
76,0,469.364502,-122.569229,-127.467484,434.190826,-222.890244,-124.902321,388.316711,-125.286133,-134.353485,423.917389,-271.146912,-162.567047,412.891876,-285.295715,-195.693329,443.623871,-274.141541,-204.293579
77,0,469.355408,-122.588989,-127.467987,434.201416,-222.898911,-124.892220,388.329712,-125.292030,-134.337463,423.895660,-271.131226,-162.569977,412.886627,-285.279633,-195.699890,443.577362,-274.140411,-204.293106
78,0,469.433197,-122.666481,-127.334061,434.195374,-222.871490,-124.909027,388.306000,-125.271706,-134.336151,423.887604,-271.130707,-162.580444,412.864563,-285.288940,-195.702438,443.557892,-274.156830,-204.301453
79,0,469.419739,-122.650871,-127.358826,434.194061,-222.867264,-124.924843,388.313293,-125.288147,-134.345673,423.890137,-271.135864,-162.572952,412.863708,-285.285583,-195.701340,443.558411,-274.155090,-204.299561
80,0,469.434662,-122.661423,-127.341064,434.214478,-222.869202,-124.936882,388.308044,-125.287277,-134.347458,423.903137,-271.132324,-162.557068,412.886871,-285.293945,-195.694778,443.563049,-274.158936,-204.294220
81,0,469.432098,-122.650734,-127.357468,434.240967,-222.863800,-124.930817,388.278137,-125.288788,-134.339767,423.910828,-271.144714,-162.563004,412.898621,-285.304291,-195.687454,443.576599,-274.131104,-204.273468
82,0,469.441315,-122.648979,-127.360863,434.229187,-222.853973,-124.943192,388.298798,-125.287041,-134.344421,423.920044,-271.129303,-162.565887,412.897430,-285.305573,-195.683823,443.579041,-274.138458,-204.301086
83,0,469.442383,-122.635246,-127.327339,434.255615,-222.859619,-124.907883,388.285217,-125.276703,-134.341293,423.917908,-271.128357,-162.584473,412.908691,-285.284485,-195.687286,443.621582,-274.128876,-204.295929
84,0,469.357574,-122.531448,-127.465530,434.241943,-222.834671,-124.899780,388.282013,-125.256088,-134.341263,423.929504,-271.106323,-162.557114,412.902039,-285.256042,-195.704330,443.653320,-274.105682,-204.260788
85,0,469.360992,-122.552650,-127.469910,434.217346,-222.822311,-124.880447,388.244751,-125.229057,-134.320892,423.950104,-271.081116,-162.517593,412.931396,-285.221893,-195.687881,443.659973,-274.065704,-204.264908
86,0,469.393646,-122.532295,-127.448174,434.208923,-222.778214,-124.871399,388.231201,-125.219406,-134.276398,423.921295,-271.045959,-162.528198,412.920837,-285.188599,-195.663513,443.645905,-274.061218,-204.242432
87,0,469.401672,-122.514061,-127.438797,434.223236,-222.775452,-124.827446,388.274902,-125.179245,-134.321960,423.904816,-271.016205,-162.496475,412.906281,-285.189026,-195.615463,443.608704,-274.031799,-204.239380
88,0,469.389069,-122.496170,-127.443550,434.220520,-222.744812,-124.833092,388.277435,-125.174850,-134.312073,423.917297,-270.999329,-162.481644,412.893036,-285.171295,-195.612411,443.577209,-274.005859,-204.223251
89,0,469.381622,-122.488068,-127.428192,434.256866,-222.716858,-124.813492,388.677795,-125.113518,-134.439896,423.916473,-270.989502,-162.447220,412.890320,-285.152161,-195.584625,443.573944,-274.001099,-204.179779
90,0,469.383453,-122.489632,-127.427193,434.252563,-222.680069,-124.810738,388.393341,-125.126038,-134.324341,423.934814,-270.961334,-162.402588,412.883118,-285.148773,-195.523209,443.570892,-274.002686,-204.161743
91,0,469.535583,-122.601212,-127.309906,434.270905,-222.684875,-124.781311,388.382294,-125.122040,-134.310715,423.942444,-270.973969,-162.386597,412.907135,-285.138855,-195.502151,443.602753,-273.996826,-204.133850
92,0,469.388275,-122.489174,-127.425629,434.278259,-222.693542,-124.762840,388.402100,-125.127884,-134.304993,423.939789,-270.972809,-162.379898,412.907227,-285.137634,-195.486649,443.614929,-273.966492,-204.111572
93,0,469.420593,-122.572983,-127.279877,434.267273,-222.704102,-124.728218,388.383575,-125.125107,-134.306152,423.937439,-270.964508,-162.383270,412.923737,-285.118195,-195.483688,443.635498,-273.999268,-204.049423
94,0,469.339935,-122.474442,-127.393738,434.227631,-222.663605,-124.753654,388.363007,-125.124321,-134.326218,423.946045,-270.973572,-162.372375,412.921143,-285.104156,-195.467819,443.641052,-273.995087,-204.052078
95,0,469.338898,-122.473396,-127.394379,434.215027,-222.667648,-124.755424,388.357086,-125.120712,-134.337723,423.917938,-270.930511,-162.384064,412.916473,-285.108398,-195.505112,443.636414,-273.991302,-204.055557
96,0,469.323364,-122.497429,-127.379883,434.200104,-222.654282,-124.762321,388.291870,-125.102463,-134.306625,423.888153,-270.928650,-162.394272,412.907043,-285.083496,-195.523285,443.601929,-273.959930,-204.105164
97,0,469.313049,-122.497925,-127.363098,434.169434,-222.669662,-124.776367,388.278229,-125.089470,-134.331573,423.857239,-270.912537,-162.406433,412.866821,-285.055695,-195.540771,443.588776,-273.931244,-204.132019
98,0,469.357086,-122.557487,-127.217636,434.157104,-222.661301,-124.791962,388.244965,-125.092957,-134.319687,423.837189,-270.913818,-162.432999,412.827515,-285.040283,-195.570312,443.538574,-273.897980,-204.165833
99,0,469.300659,-122.490906,-127.341423,434.131348,-222.689651,-124.764458,388.260193,-125.085709,-134.294891,423.834229,-270.917694,-162.473801,412.850006,-285.039917,-195.601974,443.511505,-273.899323,-204.191437
100,0,469.284454,-122.512810,-127.356049,434.142670,-222.683151,-124.795807,388.259338,-125.079079,-134.295105,423.841553,-270.927826,-162.451965,412.833527,-285.048431,-195.597122,443.488007,-273.909210,-204.195389
101,0,469.315735,-122.511261,-127.361389,434.166534,-222.701126,-124.779274,388.248718,-125.118240,-134.259857,423.839996,-270.945831,-162.441910,412.830994,-285.087982,-195.551910,443.456360,-273.927948,-204.204147
102,0,469.315247,-122.536598,-127.376366,434.174133,-222.721848,-124.744331,388.248657,-125.123543,-134.258102,423.849365,-270.955017,-162.401749,412.827271,-285.097412,-195.541931,443.447998,-273.962585,-204.130280
103,0,469.342804,-122.522141,-127.364799,434.185150,-222.700958,-124.779213,388.290131,-125.148460,-134.277100,423.861298,-270.976929,-162.388123,412.814453,-285.119049,-195.519379,443.442841,-274.006012,-204.112778
104,0,469.355530,-122.497665,-127.375740,434.184174,-222.711334,-124.751381,388.315674,-125.147430,-134.276337,423.867859,-270.990936,-162.372574,412.837036,-285.153870,-195.517761,443.464508,-274.053864,-204.070084
105,0,469.376953,-122.507057,-127.400444,434.211273,-222.743988,-124.721390,388.323669,-125.170082,-134.266785,423.900940,-270.987213,-162.381165,412.853638,-285.151367,-195.514786,443.515167,-274.028015,-204.072220
106,0,469.390778,-122.505142,-127.378700,434.223816,-222.737350,-124.756554,388.678162,-125.134155,-134.405670,423.929596,-271.013397,-162.407181,412.925690,-285.151855,-195.529114,443.580078,-274.041290,-204.087143
107,0,469.385193,-122.504868,-127.388657,434.277496,-222.747498,-124.739037,388.415924,-125.162529,-134.266510,423.959198,-270.992432,-162.426331,412.947784,-285.129395,-195.553757,443.652435,-273.991943,-204.109024
108,0,469.391815,-122.490379,-127.400009,434.263489,-222.750671,-124.776871,388.689484,-125.128510,-134.388336,423.968903,-270.993439,-162.440506,412.941650,-285.119781,-195.596786,443.631744,-274.014313,-204.153259
109,0,469.457581,-122.551125,-127.285645,434.276581,-222.760513,-124.777870,388.409912,-125.154716,-134.281479,423.957977,-270.979309,-162.450424,412.937469,-285.110046,-195.607407,443.620483,-273.988434,-204.175415
110,0,469.553802,-122.610016,-127.304047,434.267487,-222.725937,-124.784744,388.420349,-125.142426,-134.284698,423.937866,-270.989471,-162.475266,412.938141,-285.117554,-195.598389,443.595795,-273.983398,-204.181152
111,0,469.378326,-122.481026,-127.403694,434.233673,-222.725937,-124.778809,388.407593,-125.159454,-134.295074,423.943298,-270.993591,-162.436874,412.926697,-285.122650,-195.574310,443.574615,-274.001221,-204.176056
112,0,469.371704,-122.483902,-127.375839,434.189941,-222.707397,-124.790024,388.391510,-125.149521,-134.288406,423.926086,-271.007751,-162.437271,412.892883,-285.143250,-195.554153,443.581299,-274.020996,-204.119202
113,0,469.358002,-122.506714,-127.378242,434.188538,-222.708725,-124.784424,388.389648,-125.145508,-134.292892,423.916656,-271.001465,-162.441666,412.885162,-285.140472,-195.586578,443.577423,-274.024139,-204.138199
114,0,469.332520,-122.484215,-127.376167,434.155151,-222.735489,-124.768181,388.338409,-125.138763,-134.358109,423.874542,-270.993073,-162.448502,412.847168,-285.138367,-195.557678,443.585052,-274.024323,-204.115280
115,0,469.387817,-122.560448,-127.242920,434.159851,-222.732178,-124.749062,388.285706,-125.115555,-134.305923,423.842712,-270.976685,-162.427750,412.850983,-285.133148,-195.542999,443.576233,-274.021881,-204.109482
116,0,469.312378,-122.498322,-127.363380,434.140869,-222.731094,-124.749725,388.267609,-125.123459,-134.338913,423.838928,-270.986755,-162.419678,412.833252,-285.129761,-195.562256,443.574219,-274.019989,-204.112823
117,0,469.320892,-122.509735,-127.346039,434.120728,-222.724258,-124.760986,388.241455,-125.138939,-134.317139,423.843536,-270.975525,-162.434662,412.828308,-285.134186,-195.583160,443.568420,-274.018036,-204.103668
118,0,469.322754,-122.515472,-127.359467,434.126678,-222.722214,-124.771950,388.231720,-125.140831,-134.313080,423.830963,-270.978424,-162.449875,412.829254,-285.134918,-195.587372,443.552338,-274.020966,-204.157013
119,0,469.314972,-122.493164,-127.370193,434.143677,-222.705887,-124.802788,388.229156,-125.139442,-134.313080,423.846039,-270.990967,-162.460281,412.837128,-285.134369,-195.612213,443.562469,-274.000641,-204.159729
120,0,469.390320,-122.592125,-127.246040,434.141357,-222.744598,-124.790939,388.251678,-125.171539,-134.334503,423.855682,-270.995667,-162.453415,412.844330,-285.136658,-195.617752,443.564056,-274.038452,-204.155228
121,0,469.387970,-122.589432,-127.234612,434.146393,-222.744247,-124.813072,388.255035,-125.174316,-134.332474,423.866425,-271.020386,-162.464417,412.850372,-285.157715,-195.609390,443.580933,-274.030975,-204.143738
122,0,469.327148,-122.520233,-127.369019,434.160797,-222.760849,-124.767647,388.239532,-125.179527,-134.319534,423.865875,-271.020935,-162.439514,412.859161,-285.164215,-195.606995,443.596497,-274.036621,-204.167023
123,0,469.386139,-122.588943,-127.220970,434.130371,-222.777161,-124.791687,388.219452,-125.186592,-134.323776,423.864624,-271.021210,-162.465302,412.897003,-285.192566,-195.608490,443.626526,-274.060425,-204.151520
124,0,469.361755,-122.630798,-127.251389,434.165344,-222.765381,-124.812111,388.210052,-125.215279,-134.338303,423.866180,-271.031372,-162.466507,412.892700,-285.195068,-195.609634,443.629272,-274.062225,-204.151672
125,0,469.354645,-122.604668,-127.248795,434.167603,-222.760452,-124.832573,388.169861,-125.215263,-134.328812,423.866699,-271.020020,-162.463959,412.894287,-285.192444,-195.608490,443.634338,-274.064636,-204.145676
126,0,469.348022,-122.620209,-127.257538,434.161407,-222.787109,-124.804237,388.218445,-125.219193,-134.324051,423.868530,-271.021088,-162.463562,412.892120,-285.188385,-195.615250,443.629578,-274.061279,-204.149750
127,0,469.359467,-122.635139,-127.216309,434.127838,-222.790924,-124.794151,388.239838,-125.193520,-134.330368,423.860687,-271.034302,-162.475494,412.866547,-285.176331,-195.628708,443.598602,-274.046936,-204.172470
128,0,469.299408,-122.566689,-127.363190,434.138428,-222.783783,-124.804802,388.231201,-125.210182,-134.334106,423.835297,-271.039185,-162.492554,412.856720,-285.153015,-195.643219,443.595795,-274.028900,-204.194855
129,0,469.363617,-122.643158,-127.227547,434.123627,-222.789322,-124.853783,388.179077,-125.226723,-134.314194,423.833435,-271.043732,-162.505890,412.866516,-285.155731,-195.656845,443.605499,-274.050751,-204.193909
130,0,469.347229,-122.620949,-127.257332,434.125275,-222.799500,-124.842628,388.171600,-125.225204,-134.320572,423.824371,-271.041077,-162.534393,412.868958,-285.177246,-195.656082,443.615387,-274.057831,-204.187027
131,0,469.363617,-122.641533,-127.235741,434.113220,-222.812775,-124.840652,388.220795,-125.219254,-134.324463,423.838928,-271.045929,-162.516800,412.868866,-285.160461,-195.654282,443.603424,-274.069672,-204.207672
132,0,469.355072,-122.631775,-127.240303,434.127167,-222.775635,-124.856911,388.238556,-125.224930,-134.366379,423.823456,-271.054321,-162.528336,412.901184,-285.180084,-195.640106,443.629211,-274.077576,-204.202530
133,0,469.321564,-122.521599,-127.357796,434.141510,-222.797058,-124.819374,388.232727,-125.217598,-134.343674,423.862579,-271.043152,-162.488144,412.901337,-285.183655,-195.640732,443.635132,-274.058258,-204.178070
134,0,469.365112,-122.597900,-127.230095,434.148010,-222.797775,-124.818306,388.240173,-125.183716,-134.351685,423.893402,-271.029633,-162.487488,412.898651,-285.186157,-195.640442,443.659821,-274.043274,-204.169586
135,0,469.370087,-122.568771,-127.249580,434.139954,-222.751984,-124.850769,388.214325,-125.166878,-134.333069,423.897186,-271.010956,-162.494339,412.906952,-285.149200,-195.645477,443.663635,-274.046265,-204.164764
136,0,469.377502,-122.577866,-127.245811,434.152100,-222.745010,-124.830994,388.231628,-125.161064,-134.336319,423.900726,-271.012238,-162.492416,412.911224,-285.142853,-195.649139,443.670868,-273.999756,-204.179901
137,0,469.372559,-122.570312,-127.247093,434.158295,-222.720840,-124.859474,388.225372,-125.162971,-134.333389,423.895081,-270.983978,-162.493073,412.888275,-285.122101,-195.639725,443.667053,-274.003418,-204.172440
138,0,469.372162,-122.570679,-127.246452,434.161407,-222.704620,-124.833199,388.203766,-125.129044,-134.313110,423.895081,-270.972076,-162.490982,412.913391,-285.107574,-195.631836,443.657318,-273.976257,-204.166306
139,0,469.303223,-122.489487,-127.366989,434.146210,-222.718262,-124.810486,388.239288,-125.154915,-134.357300,423.870972,-270.973328,-162.482727,412.889618,-285.122528,-195.644180,443.653412,-273.977631,-204.185211
140,0,469.374969,-122.561127,-127.244514,434.117523,-222.717209,-124.805153,388.238556,-125.151695,-134.350586,423.872833,-270.971680,-162.476669,412.892059,-285.143188,-195.625397,443.649506,-273.999390,-204.159012
141,0,469.355164,-122.550331,-127.251579,434.121307,-222.698807,-124.841011,388.225494,-125.167374,-134.363937,423.835022,-270.968384,-162.488098,412.886353,-285.139923,-195.623764,443.655762,-274.003387,-204.154327
142,0,469.349091,-122.582558,-127.246574,434.106995,-222.718277,-124.846817,388.221771,-125.173378,-134.391785,423.847656,-270.985657,-162.485596,412.878784,-285.164429,-195.625778,443.649261,-274.021545,-204.132858
143,0,469.329742,-122.569305,-127.258453,434.095856,-222.749863,-124.811646,388.169678,-125.178696,-134.396072,423.839478,-271.005127,-162.466919,412.874542,-285.161743,-195.630005,443.649536,-274.043945,-204.149261
144,0,469.356750,-122.584335,-127.240997,434.121399,-222.770020,-124.855988,388.170715,-125.185341,-134.388428,423.849884,-271.016144,-162.510117,412.889099,-285.163849,-195.634750,443.639587,-274.065430,-204.176559
145,0,469.276428,-122.498680,-127.394272,434.141205,-222.770020,-124.851471,388.211029,-125.205383,-134.377121,423.875214,-271.020386,-162.527679,412.898926,-285.172943,-195.650345,443.662476,-274.047455,-204.171661
146,0,469.360168,-122.594116,-127.254662,434.159576,-222.788986,-124.857071,388.224762,-125.218956,-134.373550,423.889465,-271.020935,-162.505783,412.918915,-285.194794,-195.643158,443.683075,-274.025818,-204.196503
147,0,469.296967,-122.527634,-127.382858,434.159729,-222.781433,-124.866928,388.219299,-125.196548,-134.391403,423.900848,-271.018555,-162.515732,412.917236,-285.195343,-195.646606,443.684906,-274.027130,-204.194565
148,0,469.361725,-122.630402,-127.251717,434.169312,-222.800354,-124.851944,388.238464,-125.203163,-134.377579,423.929108,-271.050690,-162.513947,412.928925,-285.202911,-195.654343,443.732605,-274.064880,-204.170059
149,0,469.304443,-122.537224,-127.378014,434.162781,-222.775177,-124.892654,388.217102,-125.212761,-134.390060,423.912079,-271.045288,-162.516861,412.939392,-285.210693,-195.699448,443.750092,-274.065857,-204.194397
150,0,469.305023,-122.531181,-127.386169,434.173187,-222.792160,-124.866982,388.214966,-125.212204,-134.389160,423.927216,-271.061218,-162.519180,412.943024,-285.231079,-195.686691,443.743774,-274.070343,-204.195679
151,0,469.372406,-122.608627,-127.260864,434.169891,-222.803680,-124.865959,388.203918,-125.220879,-134.365402,423.917084,-271.058594,-162.534119,412.924133,-285.226654,-195.677399,443.742004,-274.065887,-204.194641
152,0,469.372498,-122.608513,-127.254295,434.165192,-222.817398,-124.843765,388.218842,-125.211639,-134.343140,423.928497,-271.060394,-162.516846,412.941864,-285.224274,-195.656952,443.706024,-274.082916,-204.200516
153,0,469.373657,-122.608902,-127.260757,434.165375,-222.801651,-124.875519,388.209320,-125.219734,-134.367996,423.930878,-271.070709,-162.513458,412.924438,-285.224945,-195.656174,443.691742,-274.076111,-204.177170
154,0,469.336945,-122.535011,-127.367989,434.174927,-222.798248,-124.877701,388.242737,-125.231850,-134.344376,423.899841,-271.102325,-162.515900,412.921783,-285.223236,-195.655838,443.722076,-274.087830,-204.172211
155,0,469.334991,-122.549446,-127.379044,434.186890,-222.819595,-124.874367,388.216949,-125.241814,-134.341110,423.901855,-271.103424,-162.515106,412.940277,-285.219208,-195.673401,443.678375,-274.108154,-204.203217
156,0,469.386444,-122.638824,-127.243919,434.175568,-222.805954,-124.872513,388.245300,-125.218216,-134.329422,423.903961,-271.113129,-162.513306,412.936798,-285.220917,-195.649521,443.710327,-274.118866,-204.194229
157,0,469.335602,-122.549049,-127.379555,434.172638,-222.806610,-124.878311,388.216187,-125.246880,-134.351303,423.890533,-271.093994,-162.534195,412.934540,-285.225281,-195.693863,443.730377,-274.108521,-204.208328
158,0,469.302643,-122.578026,-127.402527,434.162231,-222.822510,-124.880424,388.269653,-125.277428,-134.366821,423.901459,-271.094421,-162.517807,412.933380,-285.224609,-195.695587,443.683838,-274.123108,-204.215622
159,0,469.378082,-122.619232,-127.244995,434.164215,-222.807938,-124.885109,388.219421,-125.239479,-134.324020,423.908295,-271.083527,-162.535950,412.932037,-285.222382,-195.694412,443.704651,-274.102020,-204.168564
160,0,469.361572,-122.638000,-127.241356,434.147217,-222.806473,-124.882660,388.196777,-125.248970,-134.342499,423.891785,-271.091705,-162.543106,412.920593,-285.243774,-195.693314,443.675873,-274.094269,-204.210037
161,0,469.361298,-122.636650,-127.243591,434.140808,-222.819717,-124.852943,388.206329,-125.220108,-134.319077,423.897491,-271.091400,-162.526810,412.926575,-285.217499,-195.695938,443.674133,-274.091583,-204.207428
162,0,469.367004,-122.637535,-127.241898,434.143188,-222.824081,-124.847786,388.196716,-125.228790,-134.353714,423.887024,-271.086548,-162.540359,412.899231,-285.233124,-195.687286,443.676086,-274.093933,-204.205292
163,0,469.368774,-122.639175,-127.238792,434.139374,-222.830872,-124.845993,388.191223,-125.223366,-134.362457,423.879761,-271.090851,-162.529785,412.920288,-285.215240,-195.682953,443.668488,-274.087494,-204.211334
164,0,469.370483,-122.639717,-127.237679,434.144226,-222.822739,-124.858711,388.202087,-125.227097,-134.346542,423.863251,-271.074982,-162.533279,412.878082,-285.232025,-195.698120,443.666229,-274.093475,-204.205978
165,0,469.304626,-122.559433,-127.345085,434.135529,-222.824081,-124.830040,388.233185,-125.226257,-134.354065,423.833740,-271.066467,-162.530365,412.888916,-285.229340,-195.673370,443.648224,-274.088287,-204.170456
166,0,469.373230,-122.633163,-127.236588,434.124084,-222.806442,-124.866180,388.272156,-125.193459,-134.359222,423.817688,-271.183472,-162.417130,412.878723,-285.225922,-195.694305,443.659607,-274.086609,-204.185944
167,0,469.369812,-122.622513,-127.252357,434.141998,-222.792740,-124.885056,388.233368,-125.220459,-134.368240,423.832916,-271.050262,-162.530365,412.876740,-285.229828,-195.700043,443.657043,-274.069397,-204.212234
168,0,469.377899,-122.627579,-127.254959,434.138428,-222.809906,-124.857994,388.611511,-125.161484,-134.538330,423.839966,-271.068787,-162.524582,412.883240,-285.207153,-195.703156,443.643555,-274.065063,-204.206909
169,0,469.371277,-122.618408,-127.258881,434.129089,-222.788025,-124.885849,388.330444,-125.204445,-134.439301,423.827026,-271.043915,-162.533295,412.883759,-285.209930,-195.690643,443.648468,-274.065338,-204.200607
170,0,469.352570,-122.602303,-127.261177,434.127838,-222.807678,-124.860397,388.325073,-125.196022,-134.421341,423.828430,-271.043823,-162.549606,412.888275,-285.206360,-195.700592,443.647491,-274.066589,-204.200607
171,0,469.352325,-122.622383,-127.278374,434.135376,-222.813354,-124.856064,388.324982,-125.203819,-134.426834,423.838928,-271.077393,-162.540222,412.896851,-285.187866,-195.678543,443.660126,-274.086731,-204.230804
172,0,469.355621,-122.606239,-127.254143,434.136108,-222.789978,-124.879997,388.327087,-125.204521,-134.426544,423.833649,-271.048798,-162.557144,412.902069,-285.217773,-195.694946,443.657806,-274.085144,-204.238541
173,0,469.361938,-122.614357,-127.262619,434.125732,-222.802444,-124.878029,388.317047,-125.205322,-134.422943,423.848358,-271.058075,-162.571259,412.908569,-285.214447,-195.706558,443.669037,-274.095276,-204.230209
174,0,469.358215,-122.639534,-127.267448,434.130493,-222.803116,-124.899811,388.303558,-125.206932,-134.418411,423.852478,-271.071625,-162.564011,412.881561,-285.229736,-195.714890,443.661743,-274.089050,-204.233780
175,0,469.363770,-122.630219,-127.240448,434.134033,-222.837204,-124.885651,388.273346,-125.207367,-134.411285,423.841125,-271.075500,-162.543930,412.886932,-285.231476,-195.717575,443.659241,-274.087708,-204.238098
176,0,469.350037,-122.633141,-127.274498,434.121521,-222.818848,-124.899612,388.264343,-125.209183,-134.407990,423.864410,-271.076874,-162.540573,412.880859,-285.227692,-195.725021,443.649170,-274.110962,-204.235535
177,0,469.378845,-122.645432,-127.225502,434.107422,-222.795563,-124.921593,388.236633,-125.214699,-134.383408,423.867615,-271.103485,-162.547455,412.883972,-285.230042,-195.722946,443.651825,-274.113281,-204.232697
178,0,469.363800,-122.644485,-127.228317,434.145538,-222.836533,-124.859657,388.229370,-125.209930,-134.396988,423.851349,-271.088440,-162.545303,412.920502,-285.236725,-195.704803,443.648834,-274.112152,-204.235977
179,0,469.367340,-122.647125,-127.229469,434.140198,-222.841705,-124.883232,388.211639,-125.227165,-134.411407,423.856079,-271.085815,-162.548706,412.888184,-285.250000,-195.706253,443.657349,-274.117371,-204.229111
180,0,469.374207,-122.650970,-127.259102,434.133728,-222.837830,-124.886658,388.238770,-125.237617,-134.378387,423.882721,-271.110260,-162.579819,412.893707,-285.245911,-195.717697,443.660797,-274.136597,-204.226898
181,0,469.386322,-122.671005,-127.265480,434.152130,-222.850342,-124.882111,388.229553,-125.239922,-134.374298,423.890442,-271.128815,-162.575150,412.926636,-285.240662,-195.710709,443.662018,-274.138275,-204.226959
182,0,469.319977,-122.584190,-127.414154,434.166321,-222.855042,-124.875580,388.213348,-125.239105,-134.369812,423.909637,-271.108429,-162.576767,412.928894,-285.240265,-195.723160,443.670746,-274.133270,-204.247345
183,0,469.360779,-122.641739,-127.291573,434.153412,-222.833221,-124.910156,388.212311,-125.239265,-134.369354,423.907227,-271.107880,-162.578491,412.932770,-285.238678,-195.729843,443.668793,-274.131897,-204.249893
184,0,469.301605,-122.581841,-127.418671,434.163330,-222.860153,-124.874939,388.218750,-125.240341,-134.370575,423.906433,-271.112732,-162.592712,412.935120,-285.245117,-195.728424,443.681396,-274.117157,-204.252228
185,0,469.327271,-122.557243,-127.433464,434.154022,-222.840897,-124.928932,388.237396,-125.238029,-134.374634,423.906952,-271.112701,-162.593689,412.942841,-285.248383,-195.767838,443.713837,-274.124084,-204.241760
186,0,469.316803,-122.564636,-127.425400,434.161591,-222.851791,-124.904549,388.218079,-125.238609,-134.370880,423.902313,-271.115875,-162.590546,412.946686,-285.248657,-195.724808,443.713806,-274.126495,-204.244797
187,0,469.298309,-122.564087,-127.421585,434.151886,-222.839966,-124.904846,388.219727,-125.239624,-134.372009,423.908234,-271.117584,-162.585480,412.919952,-285.275269,-195.741470,443.679077,-274.142151,-204.243164
188,0,469.361969,-122.641899,-127.291130,434.161438,-222.851547,-124.870819,388.228271,-125.231041,-134.404663,423.907288,-271.117950,-162.586258,412.914032,-285.281738,-195.716034,443.687164,-274.118073,-204.245895
189,0,469.370270,-122.636795,-127.300697,434.144592,-222.827591,-124.918465,388.222778,-125.237511,-134.381210,423.896057,-271.114227,-162.581650,412.941498,-285.272339,-195.691162,443.713470,-274.124359,-204.237946
190,0,469.359406,-122.623917,-127.294647,434.143127,-222.829407,-124.901085,388.212646,-125.232834,-134.398254,423.900879,-271.109192,-162.560913,412.937805,-285.261292,-195.699890,443.678864,-274.114960,-204.233856
191,0,469.351959,-122.621162,-127.256241,434.154083,-222.830673,-124.874580,388.218201,-125.238258,-134.379181,423.893036,-271.085083,-162.561157,412.938324,-285.223236,-195.707962,443.709656,-274.128906,-204.234177
192,0,469.353363,-122.624550,-127.250656,434.134125,-222.846771,-124.843811,388.207458,-125.221718,-134.366455,423.876556,-271.086182,-162.555618,412.927032,-285.238617,-195.719879,443.700653,-274.121613,-204.219116
193,0,469.356567,-122.625549,-127.248901,434.100922,-222.852615,-124.888786,388.164948,-125.223846,-134.354752,423.835663,-271.070221,-162.548172,412.892395,-285.232788,-195.735214,443.677612,-274.095428,-204.249161
194,0,469.356415,-122.627281,-127.245995,434.083832,-222.859818,-124.874565,388.197113,-125.215096,-134.391724,423.833649,-271.085083,-162.567566,412.891266,-285.234680,-195.739929,443.663696,-274.095276,-204.238388
195,0,469.358063,-122.628609,-127.243324,434.101257,-222.838272,-124.883865,388.192505,-125.220016,-134.370163,423.821594,-271.082855,-162.552643,412.860138,-285.226379,-195.736252,443.645905,-274.108337,-204.243210
196,0,469.355011,-122.633400,-127.232956,434.099121,-222.842972,-124.890991,388.190186,-125.220612,-134.371368,423.824829,-271.086212,-162.562531,412.849152,-285.219971,-195.729523,443.640381,-274.103760,-204.244186
197,0,469.356445,-122.644707,-127.252800,434.118896,-222.830917,-124.903381,388.219604,-125.236946,-134.391418,423.822083,-271.086090,-162.557007,412.844269,-285.259277,-195.699677,443.608673,-274.163177,-204.232758
198,0,469.366913,-122.643295,-127.259987,434.116455,-222.839981,-124.892120,388.220093,-125.239838,-134.380035,423.830200,-271.110748,-162.524719,412.851501,-285.266296,-195.689423,443.631287,-274.148865,-204.206268
199,0,469.380066,-122.654549,-127.272308,434.143372,-222.842346,-124.851700,388.203339,-125.239655,-134.374298,423.872711,-271.128906,-162.535233,412.898560,-285.277618,-195.690918,443.665924,-274.156769,-204.210281
200,0,469.298248,-122.564980,-127.421303,434.152435,-222.833633,-124.865051,388.193146,-125.241501,-134.361893,423.875702,-271.125214,-162.529602,412.899445,-285.278656,-195.681870,443.675018,-274.163635,-204.170486
201,0,469.287994,-122.554878,-127.425598,434.148376,-222.836853,-124.856636,388.232544,-125.235748,-134.355957,423.894470,-271.119629,-162.529739,412.934052,-285.266724,-195.680923,443.727692,-274.149719,-204.178070
202,0,469.306305,-122.547447,-127.418427,434.172180,-222.858139,-124.855003,388.241028,-125.230415,-134.325912,423.891724,-271.109497,-162.532654,412.935730,-285.271027,-195.679077,443.724609,-274.154785,-204.195419
203,0,469.362946,-122.637199,-127.297836,434.163116,-222.840820,-124.890762,388.221436,-125.240013,-134.340027,423.909332,-271.110229,-162.551178,412.937927,-285.269592,-195.690781,443.733398,-274.150452,-204.187271
204,0,469.367798,-122.630875,-127.272964,434.168549,-222.825745,-124.893044,388.229736,-125.237358,-134.362747,423.912994,-271.121887,-162.545441,412.930908,-285.261932,-195.698746,443.717590,-274.142395,-204.189285
205,0,469.296570,-122.565002,-127.420158,434.179352,-222.846069,-124.888214,388.211029,-125.233337,-134.340073,423.877441,-271.224854,-162.454208,412.936859,-285.267242,-195.692810,443.712341,-274.172394,-204.218414
206,0,469.296509,-122.564125,-127.421410,434.162903,-222.860550,-124.882355,388.196320,-125.255020,-134.362717,423.885895,-271.135681,-162.551956,412.906647,-285.281586,-195.697250,443.706726,-274.171173,-204.206070
207,0,469.305328,-122.582138,-127.418312,434.164520,-222.900040,-124.890846,388.216888,-125.253143,-134.371078,423.882294,-271.140625,-162.570633,412.898163,-285.278473,-195.708847,443.703918,-274.170837,-204.212952
208,0,469.370850,-122.658691,-127.287376,434.156036,-222.913757,-124.862038,388.241394,-125.320793,-134.380249,423.893982,-271.154877,-162.552307,412.907288,-285.318207,-195.698334,443.681641,-274.184998,-204.215622
209,0,469.302643,-122.581955,-127.418594,434.169891,-222.884247,-124.902908,388.248047,-125.319344,-134.383057,423.896149,-271.155853,-162.544220,412.919983,-285.333099,-195.691879,443.724213,-274.197693,-204.207764
210,0,469.369141,-122.658447,-127.288567,434.152374,-222.919128,-124.857780,388.262390,-125.308502,-134.333832,423.912018,-271.164612,-162.524155,412.924927,-285.310394,-195.677505,443.727997,-274.201599,-204.207001
211,0,469.322815,-122.576981,-127.426941,434.176910,-222.907578,-124.864632,388.290741,-125.307877,-134.321091,423.910400,-271.169006,-162.497849,412.960144,-285.335052,-195.680222,443.725586,-274.217651,-204.190750
212,0,469.331726,-122.586807,-127.411797,434.201141,-222.905380,-124.868713,388.275635,-125.315025,-134.362549,423.917358,-271.180634,-162.524292,412.999023,-285.332611,-195.666351,443.731415,-274.223541,-204.185120
213,0,469.391602,-122.662567,-127.282990,434.181671,-222.894272,-124.862518,388.264893,-125.307831,-134.316757,423.928833,-271.181396,-162.479843,412.998169,-285.353516,-195.644791,443.735016,-274.223206,-204.177612
214,0,469.299042,-122.586662,-127.411499,434.190735,-222.915955,-124.850533,388.267517,-125.303429,-134.341965,423.953247,-271.164612,-162.474991,412.997711,-285.345612,-195.652206,443.802490,-274.188354,-204.142532
215,0,469.351746,-122.596100,-127.406075,434.228851,-222.888947,-124.865837,388.301422,-125.292915,-134.330780,423.977051,-271.174500,-162.472321,413.002441,-285.348022,-195.648972,443.807434,-274.192657,-204.143082
216,0,469.391296,-122.668762,-127.281395,434.242615,-222.885971,-124.857506,388.290100,-125.294579,-134.332718,424.007355,-271.181488,-162.495773,413.027496,-285.341248,-195.647003,443.821625,-274.196686,-204.163544
217,0,469.416718,-122.646622,-127.272308,434.245148,-222.870956,-124.864983,388.298767,-125.291664,-134.342819,424.015808,-271.166046,-162.495422,413.092834,-285.334015,-195.665909,443.837372,-274.179749,-204.160049
218,0,469.351746,-122.587784,-127.412361,434.247986,-222.875519,-124.866043,388.266571,-125.308975,-134.326599,424.030884,-271.065033,-162.480637,413.109344,-285.360931,-195.663544,443.910309,-274.145538,-204.210968
219,0,469.331726,-122.587090,-127.411232,434.273499,-222.886993,-124.858643,388.284851,-125.290604,-134.341248,424.067810,-271.078705,-162.470840,413.126678,-285.347382,-195.658478,443.927124,-274.155518,-204.210541
220,0,469.305481,-122.556099,-127.437218,434.289337,-222.866608,-124.887215,388.306671,-125.296799,-134.329895,424.107208,-271.129272,-162.490143,413.188934,-285.338135,-195.668732,443.946472,-274.142578,-204.207977
221,0,469.378784,-122.642784,-127.287704,434.275574,-222.878326,-124.848450,388.297211,-125.293762,-134.332275,424.102325,-271.117218,-162.495163,413.202087,-285.350342,-195.657745,443.954742,-274.150024,-204.199310
222,0,469.300171,-122.557693,-127.396477,434.268799,-222.862473,-124.837715,388.273560,-125.304863,-134.306976,424.106995,-271.132019,-162.480698,413.216156,-285.328278,-195.667770,443.994659,-274.122589,-204.181152
223,0,469.363007,-122.641464,-127.241928,434.261292,-222.880920,-124.803154,388.265656,-125.246483,-134.305710,424.105652,-271.125641,-162.486893,413.249237,-285.334808,-195.660553,444.016693,-274.105377,-204.178619
224,0,469.317230,-122.561996,-127.368095,434.278290,-222.858337,-124.827576,388.255280,-125.260025,-134.293976,424.114716,-271.053497,-162.466019,413.253052,-285.351746,-195.655701,444.021210,-274.108734,-204.174606
225,0,469.365448,-122.627419,-127.255112,434.280731,-222.853302,-124.806587,388.629608,-125.201942,-134.473450,424.109253,-271.135712,-162.472549,413.265106,-285.354370,-195.621658,444.031403,-274.091980,-204.166504
226,0,469.359314,-122.632011,-127.250031,434.277130,-222.869980,-124.787071,388.358856,-125.229713,-134.372162,424.146332,-271.111847,-162.420776,413.277161,-285.332916,-195.603561,444.027893,-274.094574,-204.152069
227,0,469.308868,-122.556633,-127.376976,434.260437,-222.864532,-124.753792,388.625824,-125.200363,-134.484909,424.142395,-271.130737,-162.369293,413.279755,-285.329773,-195.565872,444.061249,-274.099274,-204.075699
228,0,469.348267,-122.626274,-127.237740,434.284790,-222.854446,-124.732643,388.363861,-125.221565,-134.349518,424.132935,-271.124725,-162.334900,413.297119,-285.356201,-195.499435,444.089844,-274.130096,-204.026810
229,0,469.279358,-122.534081,-127.367752,434.276611,-222.823837,-124.696983,388.630157,-125.201492,-134.473312,424.146759,-271.129730,-162.304825,413.338409,-285.375488,-195.481979,444.097382,-274.158295,-203.943985
230,0,469.281494,-122.534576,-127.367615,434.300446,-222.812637,-124.709023,388.367340,-125.217125,-134.338745,424.199921,-271.109344,-162.297211,413.373596,-285.370575,-195.450287,444.135529,-274.125153,-203.934875
231,0,469.323700,-122.563812,-127.231956,434.302673,-222.797226,-124.694519,388.380707,-125.201073,-134.302994,424.229492,-271.104523,-162.292343,413.429169,-285.370361,-195.439453,444.189148,-274.120270,-203.924179
232,0,469.372559,-122.602448,-127.219765,434.347382,-222.798019,-124.703079,388.381653,-125.217720,-134.291000,424.264893,-271.043365,-162.250259,413.468323,-285.337830,-195.430435,444.220276,-274.099701,-203.966263
233,0,469.377502,-122.594337,-127.230942,434.378113,-222.807022,-124.687378,388.664948,-125.185059,-134.404205,424.284821,-271.103333,-162.295609,413.483734,-285.347626,-195.475479,444.257263,-274.045441,-203.974365
234,0,469.297974,-122.521935,-127.345802,434.369843,-222.803482,-124.713898,388.381958,-125.225632,-134.290421,424.316864,-271.016083,-162.277664,413.528534,-285.375519,-195.475479,444.281464,-274.049316,-203.972153
235,0,469.460785,-122.655243,-127.239700,434.358673,-222.798737,-124.695389,388.387512,-125.221565,-134.280518,424.344543,-271.026733,-162.258163,413.553040,-285.362488,-195.459061,444.282776,-274.064941,-203.968826
236,0,469.295532,-122.514366,-127.339958,434.353729,-222.801102,-124.695465,388.383179,-125.219093,-134.315491,424.351593,-271.041138,-162.248413,413.560516,-285.367523,-195.451401,444.294708,-274.074219,-203.957718
237,0,469.283478,-122.533829,-127.329376,434.387695,-222.807907,-124.670792,388.369598,-125.232788,-134.309341,424.346252,-271.041260,-162.243210,413.565430,-285.398499,-195.463058,444.309631,-274.101288,-203.945251
238,0,469.326630,-122.612892,-127.187851,434.357361,-222.836945,-124.658531,388.353333,-125.247986,-134.310837,424.346191,-271.137299,-162.253143,413.635742,-285.401886,-195.421509,444.350250,-274.133209,-203.924942
239,0,469.434235,-122.678108,-127.199127,434.346222,-222.836807,-124.664154,388.335175,-125.254555,-134.289825,424.356201,-271.075195,-162.205887,413.656342,-285.434174,-195.404037,444.403656,-274.126404,-203.903381
240,0,469.255981,-122.544395,-127.330032,434.371552,-222.858109,-124.581848,388.336090,-125.275642,-134.280075,424.360260,-271.112579,-162.190567,413.666351,-285.468262,-195.381973,444.440247,-274.157623,-203.842514
241,0,469.326752,-122.620201,-127.199722,434.389252,-222.853790,-124.590874,388.682434,-125.259560,-134.461319,424.385406,-271.143860,-162.155548,413.662079,-285.488159,-195.333160,444.446442,-274.202301,-203.822784
242,0,469.268402,-122.534637,-127.353027,434.374969,-222.871033,-124.571198,388.405029,-125.307022,-134.326904,424.401917,-271.152435,-162.094254,413.669434,-285.505707,-195.315308,444.439728,-274.226501,-203.770447
243,0,469.420044,-122.670479,-127.236305,434.395966,-222.908447,-124.535873,388.413086,-125.307991,-134.315811,424.419891,-271.142517,-162.087250,413.719147,-285.536255,-195.253967,444.448212,-274.253174,-203.746857
244,0,469.242737,-122.550598,-127.360611,434.372711,-222.882141,-124.542564,388.392151,-125.291138,-134.297897,424.458466,-271.146484,-162.058197,413.735657,-285.561707,-195.238815,444.450653,-274.251221,-203.710648
245,0,469.266113,-122.549866,-127.369148,434.422058,-222.878677,-124.517487,388.402283,-125.289963,-134.281021,424.481201,-271.175537,-162.049271,413.789551,-285.540863,-195.235260,444.498627,-274.237976,-203.692429
246,0,469.274628,-122.541000,-127.370712,434.448883,-222.853607,-124.534607,388.396576,-125.289246,-134.265015,424.492432,-271.132324,-162.049927,413.817780,-285.565186,-195.213745,444.537445,-274.245972,-203.701767
247,0,469.491302,-122.743172,-127.154945,434.468781,-222.856522,-124.522690,388.418579,-125.272614,-134.277527,424.538452,-271.147186,-162.042099,413.858551,-285.554810,-195.243332,444.545746,-274.222961,-203.706161
248,0,469.446075,-122.687820,-127.256317,434.481659,-222.852066,-124.534050,388.384735,-125.297920,-134.287369,424.570953,-271.149445,-162.010941,413.902802,-285.566223,-195.208664,444.605560,-274.223022,-203.686630
249,0,469.280060,-122.529442,-127.356514,434.490540,-222.864929,-124.498360,388.390106,-125.274063,-134.271210,424.593872,-271.133911,-161.994965,413.945496,-285.575226,-195.194931,444.634644,-274.231384,-203.666290
250,0,469.439209,-122.646553,-127.265976,434.483246,-222.855087,-124.524887,388.360107,-125.280144,-134.241562,424.609558,-271.151062,-161.990067,413.972015,-285.586853,-195.184433,444.695129,-274.256989,-203.651688
251,0,469.421326,-122.633766,-127.252609,434.491547,-222.867645,-124.483749,388.364197,-125.278961,-134.243454,424.619934,-271.135040,-161.991226,414.013611,-285.599365,-195.165436,444.749969,-274.239868,-203.633789
252,0,469.574615,-122.677055,-127.034676,434.488312,-222.872437,-124.484573,388.324371,-125.298050,-134.202850,424.661438,-271.145752,-161.981644,414.068298,-285.601746,-195.152954,444.797211,-274.250549,-203.618790
253,0,469.300781,-122.510361,-127.326042,434.513092,-222.824142,-124.516815,388.306702,-125.307190,-134.193726,424.691254,-271.148956,-161.950073,414.069824,-285.601410,-195.149902,444.814697,-274.229156,-203.613876
254,0,469.440216,-122.612320,-127.218056,434.517761,-222.815399,-124.478996,388.340332,-125.297668,-134.228912,424.689117,-271.149445,-161.943268,414.073425,-285.613312,-195.142715,444.822113,-274.232513,-203.604279
255,0,469.460785,-122.622856,-127.200081,434.509460,-222.823929,-124.476265,388.295258,-125.248444,-134.179367,424.700104,-271.134521,-161.938202,414.077789,-285.617981,-195.137604,444.829712,-274.208832,-203.576843
256,0,469.477875,-122.713905,-127.091972,434.486359,-222.808029,-124.514610,388.276428,-125.238556,-134.172119,424.699738,-271.134369,-161.938721,414.147400,-285.597260,-195.123978,444.831573,-274.192169,-203.592545
257,0,469.384827,-122.612640,-127.210098,434.470367,-222.800858,-124.474785,388.294922,-125.230820,-134.204742,424.686066,-271.106445,-161.939926,414.154083,-285.615753,-195.117981,444.895264,-274.180481,-203.554138
258,0,469.235046,-122.480530,-127.278671,434.457916,-222.770401,-124.487091,388.293640,-125.238731,-134.188828,424.702454,-271.126587,-161.940140,414.153473,-285.583954,-195.107178,444.891388,-274.185181,-203.527252
259,0,469.369598,-122.580673,-127.182800,434.447571,-222.764145,-124.490631,388.274078,-125.223160,-134.179413,424.678528,-271.091583,-161.943954,414.146179,-285.595306,-195.123276,444.935211,-274.205933,-203.482574
260,0,469.458160,-122.573502,-127.090561,434.440765,-222.771606,-124.482758,388.219849,-125.220238,-134.194366,424.679932,-271.103546,-161.940277,414.164978,-285.617371,-195.115585,444.957520,-274.221283,-203.448959
261,0,469.196564,-122.464523,-127.262665,434.442169,-222.782074,-124.461319,388.243011,-125.225098,-134.183594,424.732239,-271.096436,-161.941132,414.184540,-285.603302,-195.130371,444.995453,-274.235809,-203.425400
262,0,469.181854,-122.451729,-127.272102,434.447174,-222.783371,-124.461952,388.227203,-125.227989,-134.144989,424.766846,-271.085022,-161.917923,414.227905,-285.611938,-195.136765,445.035370,-274.256287,-203.384827
263,0,469.355194,-122.541557,-127.063957,434.438721,-222.814880,-124.438713,388.206970,-125.267670,-134.156265,424.769684,-271.120880,-161.925659,414.262756,-285.646393,-195.095963,445.039185,-274.263000,-203.383667
264,0,469.369263,-122.616264,-127.179100,434.475403,-222.814667,-124.473625,388.268799,-125.241798,-134.190994,424.779846,-271.121429,-161.940582,414.293304,-285.629761,-195.118652,445.128143,-274.262543,-203.374344
265,0,469.210815,-122.496986,-127.250641,434.530914,-222.810242,-124.488762,388.297363,-125.250641,-134.169937,424.886139,-271.134186,-161.900330,414.320862,-285.664795,-195.129333,445.133606,-274.265991,-203.358932
266,0,469.354919,-122.577286,-127.187134,434.559357,-222.775162,-124.483505,388.666016,-125.204742,-134.335693,424.896210,-271.148499,-161.883194,414.391113,-285.664246,-195.119843,445.192413,-274.255737,-203.372696
267,0,469.472504,-122.596786,-127.112778,434.575195,-222.802979,-124.478958,388.611359,-125.223335,-134.329056,424.918365,-271.143921,-161.876938,414.421753,-285.668732,-195.120163,445.248993,-274.256775,-203.370834
268,0,469.367920,-122.638222,-127.179649,434.591919,-222.801392,-124.474464,388.371155,-125.259834,-134.239304,424.960144,-271.157837,-161.898193,414.431580,-285.693237,-195.111267,445.255096,-274.252716,-203.395020
269,0,469.347839,-122.611427,-127.185837,434.589539,-222.819366,-124.443192,388.383057,-125.274139,-134.224533,424.982910,-271.146912,-161.888397,414.505859,-285.690247,-195.116974,445.293579,-274.268433,-203.382324
270,0,469.444702,-122.713676,-127.074852,434.612457,-222.853134,-124.404305,388.393341,-125.270409,-134.204742,425.020721,-271.190369,-161.829269,414.529999,-285.696838,-195.107224,445.303894,-274.292267,-203.373901
271,0,469.375122,-122.648445,-127.179878,434.637970,-222.854034,-124.363770,388.339600,-125.284256,-134.222153,425.008423,-271.194580,-161.820541,414.532471,-285.691498,-195.057190,445.328552,-274.277374,-203.361099
272,0,469.215851,-122.513084,-127.286613,434.615387,-222.822815,-124.410469,388.369690,-125.277222,-134.191559,425.017120,-271.209381,-161.811859,414.532745,-285.716766,-195.025757,445.313629,-274.317474,-203.345657
273,0,469.440491,-122.717964,-127.069649,434.611908,-222.857681,-124.339073,388.385437,-125.331406,-134.183441,425.044647,-271.223022,-161.766373,414.523315,-285.719482,-195.011688,445.304596,-274.315430,-203.342117
274,0,469.465302,-122.726372,-127.098129,434.642090,-222.842224,-124.370750,388.398865,-125.300583,-134.206085,425.051086,-271.237061,-161.761902,414.519592,-285.764313,-194.990173,445.288483,-274.354065,-203.314621
275,0,469.473297,-122.720978,-127.077431,434.653198,-222.821014,-124.371048,388.412445,-125.334145,-134.200546,425.049164,-271.238861,-161.719330,414.511688,-285.756134,-194.991226,445.254913,-274.339417,-203.276642
276,0,469.453278,-122.697670,-127.098457,434.652435,-222.834747,-124.352867,388.389496,-125.329109,-134.192078,425.040009,-271.232330,-161.723007,414.524231,-285.765167,-194.984131,445.252380,-274.343445,-203.265579
277,0,469.450775,-122.682297,-127.126541,434.675934,-222.838486,-124.330048,388.389374,-125.323654,-134.206909,425.044830,-271.233795,-161.718750,414.518585,-285.757507,-194.984039,445.250122,-274.337585,-203.265778
278,0,469.469330,-122.696609,-127.113686,434.670349,-222.832764,-124.335129,388.368073,-125.318039,-134.220001,425.043762,-271.234253,-161.718140,414.517456,-285.755981,-194.985870,445.256653,-274.345947,-203.264557
279,0,469.485413,-122.718994,-127.105667,434.676147,-222.827560,-124.341751,388.356934,-125.331940,-134.178604,425.040894,-271.233795,-161.715927,414.517090,-285.758057,-194.983185,445.241669,-274.323792,-203.305389
280,0,469.482391,-122.720345,-127.080452,434.691986,-222.821228,-124.364044,388.360535,-125.333549,-134.178940,425.049866,-271.229675,-161.744202,414.520355,-285.722809,-195.002121,445.246155,-274.320190,-203.329544
281,0,469.500153,-122.713348,-127.087204,434.703674,-222.815323,-124.379433,388.325775,-125.314163,-134.185165,425.053986,-271.220428,-161.747238,414.524689,-285.717590,-195.012375,445.248047,-274.300049,-203.359909
282,0,469.483002,-122.737724,-127.091393,434.681641,-222.830017,-124.344986,388.337372,-125.310692,-134.210968,425.045013,-271.212982,-161.769028,414.519867,-285.700775,-195.015823,445.235229,-274.278809,-203.359161
283,0,469.431793,-122.636604,-127.200050,434.681519,-222.799606,-124.375824,388.671234,-125.234138,-134.333725,425.037994,-271.197662,-161.777374,414.511139,-285.691711,-195.017776,445.232117,-274.266968,-203.369888
284,0,469.548035,-122.679527,-127.000214,434.660889,-222.794571,-124.400131,388.386963,-125.260605,-134.241562,424.995636,-271.188965,-161.803726,414.507812,-285.671844,-195.044998,445.162140,-274.258850,-203.390915
285,0,469.566925,-122.687630,-126.984253,434.620850,-222.801071,-124.378792,388.385193,-125.267654,-134.226135,424.976990,-271.167786,-161.803467,414.488342,-285.643372,-195.043381,445.146881,-274.263672,-203.389069
286,0,469.478394,-122.718376,-127.075104,434.613708,-222.805511,-124.377495,388.397400,-125.262917,-134.234299,424.945221,-271.181152,-161.814117,414.419647,-285.673096,-195.050537,445.089905,-274.242645,-203.393143
287,0,469.240112,-122.489891,-127.297249,434.592682,-222.817261,-124.377281,388.669708,-125.228691,-134.348724,424.918304,-271.186554,-161.820007,414.398865,-285.637970,-195.062973,445.043762,-274.267548,-203.405624
288,0,469.468567,-122.698601,-127.083313,434.611633,-222.804779,-124.396500,388.664825,-125.228775,-134.357056,424.890869,-271.173004,-161.804016,414.352386,-285.648315,-195.067841,445.031982,-274.261169,-203.404877
289,0,469.406647,-122.629272,-127.200592,434.604004,-222.820312,-124.377144,388.661346,-125.226509,-134.368195,424.877991,-271.179443,-161.777115,414.334778,-285.649414,-195.026718,444.990173,-274.277527,-203.399521
290,0,469.438202,-122.623093,-127.216415,434.631256,-222.833160,-124.395721,388.654907,-125.241638,-134.364349,424.882202,-271.195526,-161.802917,414.305939,-285.670166,-195.023834,444.958832,-274.287140,-203.395920
291,0,469.490692,-122.690697,-127.098862,434.587921,-222.840134,-124.413490,388.715149,-125.261757,-134.357208,424.882080,-271.188995,-161.810104,414.316223,-285.678223,-195.030060,444.946930,-274.310822,-203.386307
292,0,469.434113,-122.622612,-127.208549,434.618286,-222.841110,-124.371315,388.436859,-125.295830,-134.231445,424.908295,-271.186310,-161.817184,414.354187,-285.663910,-195.054138,444.958984,-274.276703,-203.408051
293,0,469.285461,-122.474350,-127.304329,434.644348,-222.806824,-124.419220,388.742096,-125.242798,-134.346298,424.906219,-271.168182,-161.826813,414.366150,-285.637848,-195.065918,444.967468,-274.274841,-203.424774
294,0,469.460663,-122.607605,-127.227646,434.657867,-222.811478,-124.403275,388.725922,-125.256851,-134.338226,424.952393,-271.180420,-161.835129,414.410583,-285.640625,-195.084839,445.025208,-274.245544,-203.457077
295,0,469.490540,-122.612793,-127.222580,434.637085,-222.750275,-124.526543,388.743835,-125.247658,-134.286911,424.953186,-271.176331,-161.841492,414.399292,-285.647705,-195.107361,445.051788,-274.225220,-203.485733
296,0,469.503754,-122.615753,-127.226128,434.647400,-222.756943,-124.551544,388.749847,-125.259666,-134.352386,424.976715,-271.178192,-161.883743,414.409760,-285.649139,-195.132660,445.015289,-274.218933,-203.516327
297,0,469.484741,-122.631996,-127.234283,434.647247,-222.755981,-124.559265,388.739777,-125.272560,-134.343689,424.969269,-271.195129,-161.877838,414.419861,-285.648987,-195.155930,445.012207,-274.217316,-203.520615
298,0,469.486633,-122.681320,-127.229721,434.637177,-222.762039,-124.569839,388.720245,-125.287666,-134.358078,424.973724,-271.202850,-161.916077,414.410126,-285.647461,-195.128342,444.974152,-274.249786,-203.528397
299,0,469.563629,-122.748657,-127.067474,434.612122,-222.803879,-124.555374,388.721924,-125.297234,-134.347977,424.927338,-271.194824,-161.892685,414.391235,-285.669403,-195.111557,445.006348,-274.244965,-203.516510
300,0,469.548798,-122.748451,-127.079964,434.651855,-222.829758,-124.445183,388.675110,-125.300766,-134.334793,424.931213,-271.225006,-161.874069,414.392731,-285.672089,-195.109695,444.982208,-274.278992,-203.512131
301,0,469.468597,-122.689697,-127.202660,434.599487,-222.794693,-124.528320,388.714264,-125.286415,-134.368835,424.933167,-271.219269,-161.850250,414.392883,-285.691986,-195.094788,444.983826,-274.304169,-203.462524
302,0,469.510132,-122.676384,-127.188560,434.592010,-222.796783,-124.528618,388.677979,-125.304741,-134.323273,424.937927,-271.237488,-161.830200,414.414642,-285.696442,-195.069504,445.002228,-274.286865,-203.428604
303,0,469.492432,-122.652786,-127.201859,434.647522,-222.828049,-124.464523,388.681732,-125.306252,-134.313263,424.947937,-271.219971,-161.836792,414.419891,-285.697723,-195.072510,445.004120,-274.287170,-203.425964
304,0,469.606293,-122.739258,-127.000107,434.612854,-222.839874,-124.454666,388.714203,-125.268234,-134.347229,424.966949,-271.231476,-161.849701,414.400024,-285.694885,-195.098465,445.001465,-274.266388,-203.442932
305,0,469.596222,-122.778343,-126.968697,434.626923,-222.849640,-124.465775,388.678223,-125.302238,-134.324615,424.961334,-271.209015,-161.890762,414.404755,-285.677979,-195.130676,445.015869,-274.225861,-203.518265
306,0,469.501373,-122.772835,-127.058594,434.603851,-222.862930,-124.486877,388.414978,-125.334427,-134.189560,424.947693,-271.206543,-161.910751,414.421722,-285.648590,-195.174530,445.022797,-274.221741,-203.545044
307,0,469.505798,-122.775238,-127.075089,434.616272,-222.855606,-124.539825,388.414917,-125.323700,-134.204254,424.956085,-271.201019,-161.939041,414.417572,-285.622742,-195.187546,445.013123,-274.193451,-203.566116
308,0,469.454651,-122.695938,-127.198410,434.624634,-222.863220,-124.536934,388.727478,-125.291672,-134.337051,424.979919,-271.198792,-161.942566,414.407715,-285.627106,-195.214096,444.999542,-274.218018,-203.560196
309,0,469.465759,-122.709908,-127.209633,434.641113,-222.857925,-124.542183,388.721649,-125.285698,-134.360840,424.973969,-271.194611,-161.944763,414.416290,-285.633453,-195.212112,444.971802,-274.228424,-203.568436
310,0,469.459686,-122.691322,-127.219322,434.630798,-222.864807,-124.539894,388.454010,-125.313622,-134.254730,424.975922,-271.195374,-161.944473,414.402130,-285.641724,-195.194000,444.975403,-274.234375,-203.564178
311,0,469.531281,-122.776123,-127.102539,434.633911,-222.846008,-124.538246,388.448486,-125.316353,-134.248917,424.974884,-271.202271,-161.939560,414.425812,-285.647186,-195.180054,444.971436,-274.228760,-203.566650
312,0,469.449036,-122.694580,-127.218842,434.636841,-222.848297,-124.516380,388.430908,-125.312943,-134.257599,424.978302,-271.203186,-161.936508,414.425171,-285.644257,-195.181122,444.990723,-274.216919,-203.565216
313,0,469.419037,-122.673988,-127.224686,434.634460,-222.836731,-124.526962,388.435272,-125.306412,-134.273499,424.979187,-271.204498,-161.935318,414.421326,-285.631195,-195.188232,445.008209,-274.194733,-203.557556
314,0,469.241638,-122.534416,-127.334015,434.619934,-222.846451,-124.501251,388.420532,-125.306908,-134.244293,424.976105,-271.179169,-161.950729,414.440338,-285.617371,-195.227997,445.003296,-274.171844,-203.575714
315,0,469.219269,-122.516869,-127.308342,434.628845,-222.844589,-124.503769,388.342865,-125.265060,-134.225281,424.994476,-271.164459,-161.993134,414.450836,-285.599640,-195.278961,444.997375,-274.148560,-203.642639
316,0,469.234558,-122.523743,-127.285362,434.614960,-222.853683,-124.525116,388.350983,-125.265450,-134.200577,424.989380,-271.135132,-162.054626,414.446503,-285.579254,-195.300430,444.965454,-274.134888,-203.667419
317,0,469.266815,-122.580254,-127.180878,434.600616,-222.858490,-124.549911,387.983490,-125.122726,-133.904968,424.980408,-271.121216,-162.101028,414.440063,-285.571716,-195.347824,444.926727,-274.110901,-203.728180
318,0,469.417572,-122.724335,-127.096382,434.575073,-222.858734,-124.595169,388.333740,-125.257668,-134.205719,424.946747,-271.125366,-162.126221,414.441132,-285.548859,-195.396683,444.834320,-274.085724,-203.772324
319,0,469.367340,-122.643639,-127.216278,434.550873,-222.880142,-124.608849,388.309418,-125.274940,-134.214386,424.944244,-271.116821,-162.167130,414.430756,-285.517578,-195.419037,444.824097,-274.058563,-203.796753
320,0,469.431030,-122.713707,-127.077713,434.563263,-222.862091,-124.621704,388.286346,-125.278786,-134.181580,424.924286,-271.107880,-162.192917,414.432373,-285.519714,-195.422287,444.773712,-274.063812,-203.803085
321,0,469.425507,-122.700882,-127.071915,434.562958,-222.849625,-124.623756,388.279480,-125.276802,-134.179749,424.921356,-271.080719,-162.216278,414.433167,-285.520935,-195.468872,444.740662,-274.061737,-203.816757
322,0,469.254578,-122.576416,-127.166763,434.563538,-222.811661,-124.669853,388.264740,-125.254211,-134.190857,424.924316,-271.230408,-162.132553,414.444397,-285.478546,-195.479752,444.776398,-274.019073,-203.818970
323,0,469.274292,-122.555260,-127.187294,434.575439,-222.808640,-124.692787,388.276947,-125.248375,-134.211838,424.923035,-271.237946,-162.133636,414.448517,-285.481781,-195.497879,444.812683,-274.039124,-203.845581
324,0,469.418579,-122.670143,-127.095802,434.580902,-222.804581,-124.713120,388.610870,-125.218750,-134.328400,424.929230,-271.231384,-162.135986,414.453796,-285.465332,-195.524612,444.832764,-274.002106,-203.884369
325,0,469.267426,-122.562599,-127.169266,434.591187,-222.787903,-124.685738,388.615631,-125.219254,-134.318054,424.964661,-271.180603,-162.157959,414.463135,-285.440491,-195.535767,444.816650,-273.994904,-203.864075
326,0,469.271149,-122.560181,-127.154144,434.569611,-222.811707,-124.665459,388.352417,-125.250191,-134.201157,424.987762,-271.185577,-162.149750,414.515076,-285.455383,-195.540314,444.797546,-273.972046,-203.888947
327,0,469.261139,-122.565239,-127.162292,434.576355,-222.821472,-124.661118,388.362549,-125.235603,-134.216080,425.007904,-271.180450,-162.149017,414.525909,-285.431519,-195.547592,444.802185,-273.974091,-203.885376
328,0,469.262543,-122.566444,-127.159897,434.583740,-222.817719,-124.664528,388.346741,-125.228333,-134.229111,425.035431,-271.186371,-162.179825,414.558319,-285.419312,-195.555466,444.798645,-273.966400,-203.875031
329,0,469.413116,-122.706139,-127.062424,434.587433,-222.807388,-124.688881,388.354614,-125.244064,-134.225739,425.018921,-271.180511,-162.197449,414.561249,-285.424866,-195.584915,444.792908,-273.988251,-203.835983
330,0,469.265503,-122.590820,-127.126396,434.571777,-222.834656,-124.676552,388.004761,-125.109795,-133.908554,425.042389,-271.207001,-162.224014,414.601105,-285.432922,-195.602692,444.810394,-274.017273,-203.812454
331,0,469.415314,-122.731865,-127.021744,434.579132,-222.824615,-124.710960,388.330444,-125.251427,-134.202332,425.075531,-271.243439,-162.196793,414.616272,-285.448730,-195.614807,444.839905,-274.023407,-203.813873
332,0,469.264771,-122.624901,-127.073807,434.590454,-222.827698,-124.738373,388.313934,-125.250366,-134.198395,425.063354,-271.263245,-162.210434,414.633087,-285.460144,-195.620514,444.924988,-274.026855,-203.794724
333,0,469.401245,-122.744568,-127.013252,434.585785,-222.856369,-124.708893,387.984314,-125.100357,-133.915405,425.084137,-271.274536,-162.201614,414.680389,-285.445160,-195.634842,444.988190,-274.019012,-203.823792
334,0,469.336639,-122.590591,-127.002136,434.587372,-222.877533,-124.666504,387.966797,-125.134590,-133.886169,425.107056,-271.273804,-162.233276,414.706146,-285.475006,-195.690292,445.032288,-274.029205,-203.813980
335,0,469.404480,-122.744453,-127.014320,434.630463,-222.865875,-124.764732,387.980835,-125.131950,-133.883255,425.128845,-271.313049,-162.242844,414.718506,-285.483856,-195.697418,445.041077,-273.996460,-203.867783
336,0,469.280823,-122.626488,-127.110962,434.647522,-222.898453,-124.727432,388.634308,-125.256851,-134.273056,425.150482,-271.341278,-162.244141,414.721344,-285.482574,-195.760010,445.043854,-273.998322,-203.893799
337,0,469.435242,-122.767929,-127.016647,434.672546,-222.869522,-124.792953,388.369232,-125.285400,-134.163010,425.170258,-271.284058,-162.343460,414.723633,-285.461182,-195.788330,445.054413,-274.001160,-203.895737
338,0,469.512970,-122.739944,-126.920853,434.678619,-222.891556,-124.772308,388.223083,-125.127403,-133.909866,425.166656,-271.286713,-162.359879,414.778809,-285.443146,-195.811890,445.105072,-274.034210,-203.886215
339,0,469.429657,-122.763245,-127.032402,434.708466,-222.909378,-124.802414,388.219696,-125.136673,-133.951645,425.175812,-271.307648,-162.387543,414.784576,-285.445129,-195.821182,445.144714,-274.039307,-203.846954
340,0,469.434692,-122.767342,-127.016319,434.749207,-222.878204,-124.860924,388.017120,-125.144928,-133.876068,425.189148,-271.264984,-162.434540,414.829254,-285.435577,-195.869354,445.209045,-274.056488,-203.837234
341,0,469.440796,-122.783051,-127.008736,434.740326,-222.900192,-124.892357,388.287933,-125.191780,-134.000732,425.261749,-271.258698,-162.433502,414.879639,-285.443726,-195.870285,445.241852,-274.065979,-203.818237
342,0,469.450287,-122.796364,-126.990959,434.737518,-222.878326,-124.890282,388.204987,-125.135689,-133.945480,425.256256,-271.311523,-162.450272,414.918732,-285.427460,-195.913086,445.287842,-274.051422,-203.816879
343,0,469.440430,-122.776840,-126.974731,434.745331,-222.904526,-124.889389,388.202515,-125.126602,-133.925262,425.310486,-271.295990,-162.463959,414.955414,-285.403900,-195.957458,445.307373,-274.014771,-203.836731
344,0,469.444946,-122.775276,-126.969696,434.767334,-222.901840,-124.923645,388.190277,-125.116241,-133.879318,425.323151,-271.259949,-162.535965,414.998413,-285.374634,-195.987579,445.312439,-273.968964,-203.870667
345,0,469.356659,-122.667152,-127.144348,434.745483,-222.887329,-124.951744,387.998627,-125.113609,-133.790817,425.307129,-271.223785,-162.614502,414.996155,-285.347198,-196.064484,445.304352,-273.950104,-203.880844
346,0,469.450348,-122.643517,-127.049446,434.746948,-222.873444,-125.000473,387.986267,-125.073822,-133.778564,425.315979,-271.195099,-162.659943,414.980133,-285.318390,-196.105316,445.289734,-273.923401,-203.895905
347,0,469.402130,-122.720741,-127.011330,434.744568,-222.885986,-125.040474,387.981995,-125.065598,-133.763992,425.337372,-271.127045,-162.750168,415.070038,-285.295227,-196.161636,445.231689,-273.890045,-203.866882
348,0,469.346008,-122.686966,-127.125320,434.755707,-222.884552,-125.040245,388.151978,-125.066566,-133.815674,425.423492,-270.839630,-163.049240,415.113007,-285.284393,-196.202209,445.137207,-273.878510,-203.887054
349,0,469.321533,-122.670280,-127.140327,434.746643,-222.879715,-125.094238,387.940002,-125.053894,-133.729767,425.512115,-270.939331,-163.047455,415.247498,-285.270355,-196.270569,445.085114,-273.826477,-203.898071
350,0,469.379211,-122.751709,-126.991432,434.754944,-222.890594,-125.107155,388.107849,-125.057236,-133.818497,425.576263,-270.894775,-163.134109,415.300537,-285.253510,-196.342468,445.124420,-273.790680,-203.928268
351,0,469.376129,-122.742310,-126.951706,434.770477,-222.899994,-125.168221,387.905365,-125.048714,-133.733627,425.610870,-270.690247,-163.331879,415.388062,-285.225647,-196.409714,445.194885,-273.746796,-203.978607
352,0,469.300049,-122.650841,-127.078148,434.788483,-222.875641,-125.283913,387.896912,-125.056297,-133.754044,425.664703,-270.639526,-163.485886,415.460083,-285.221466,-196.479889,445.272888,-273.700073,-204.024521
353,0,469.177551,-122.581360,-127.078430,434.785675,-222.857742,-125.357613,387.884399,-125.054482,-133.755142,425.705353,-270.602264,-163.639557,415.550110,-285.194031,-196.560089,445.338898,-273.675659,-204.065155
354,0,469.305511,-122.716629,-126.979378,434.805756,-222.912704,-125.401138,387.902008,-125.024307,-133.733459,425.752655,-270.602417,-163.840393,415.587830,-285.167877,-196.653854,445.362854,-273.639465,-204.145859
355,0,469.180664,-122.571747,-127.047661,434.802246,-222.917648,-125.432404,387.824615,-125.028046,-133.668762,425.755890,-270.613098,-163.978088,415.680603,-285.135498,-196.759995,445.366547,-273.575378,-204.212296
356,0,469.159546,-122.568504,-127.051399,434.779999,-222.934357,-125.501556,388.019989,-125.020309,-133.725128,425.861542,-270.410767,-164.235107,415.793884,-285.106598,-196.890640,445.359558,-273.529999,-204.306046
357,0,469.176758,-122.573143,-127.046692,434.756592,-222.968216,-125.549660,387.810638,-125.015450,-133.606064,425.857452,-270.349030,-164.471008,415.873779,-285.057709,-196.987701,445.376190,-273.466125,-204.423889
358,0,469.323944,-122.706985,-126.955208,434.759735,-222.934235,-125.652550,387.950897,-125.031441,-133.616028,425.893036,-270.285278,-164.630066,415.900940,-285.057800,-197.085999,445.418488,-273.366821,-204.526733
359,0,469.244476,-122.574860,-126.954407,434.746613,-222.967758,-125.692055,387.957977,-125.019226,-133.621262,425.862946,-270.245178,-164.755981,415.945587,-285.064117,-197.135742,445.475281,-273.334412,-204.576813
360,0,469.151764,-122.577629,-127.039490,434.753693,-222.970123,-125.794441,387.809296,-125.045288,-133.535080,425.898193,-270.198517,-164.855591,415.991791,-285.071381,-197.196350,445.551941,-273.343811,-204.604401
361,0,469.121765,-122.578728,-127.032829,434.680450,-222.994858,-125.825851,388.001984,-125.046638,-133.600311,425.901947,-270.168762,-164.958252,416.040314,-285.106873,-197.204529,445.607880,-273.342590,-204.572662
362,0,469.140686,-122.612503,-127.014252,434.729736,-223.028778,-125.879211,387.806244,-125.044701,-133.522949,425.918854,-270.156799,-165.047836,416.067383,-285.112518,-197.289688,445.759888,-273.346283,-204.550797
363,0,469.046387,-122.549973,-127.154755,434.699432,-223.025284,-125.985367,387.798462,-125.063629,-133.554794,425.925140,-270.146454,-165.138351,416.111603,-285.128174,-197.288300,445.964996,-273.312408,-204.587631
364,0,469.120544,-122.621269,-127.026588,434.726776,-223.065231,-125.973282,387.951660,-125.076874,-133.608871,425.933167,-270.135437,-165.163086,416.137421,-285.193756,-197.266098,446.254639,-273.231110,-204.698547
365,0,469.092987,-122.643730,-127.026093,434.790894,-223.094971,-125.963676,387.931183,-125.108971,-133.599609,425.964630,-270.163971,-165.172241,416.200623,-285.261688,-197.226242,446.717346,-273.069733,-204.826187
366,0,469.081726,-122.641800,-127.039787,434.836639,-223.102036,-125.954453,387.947632,-125.119415,-133.627747,426.010986,-270.183105,-165.184692,416.275970,-285.354919,-197.178940,447.266846,-272.861755,-204.979462
367,0,469.090424,-122.673622,-127.040359,434.862061,-223.126099,-125.950363,387.820007,-125.136314,-133.597549,426.100616,-270.220795,-165.162933,416.349274,-285.382629,-197.153168,447.805908,-272.724335,-205.081726
368,0,469.131134,-122.628654,-127.036911,434.908356,-223.170029,-125.875336,388.000153,-125.179291,-133.633820,426.170624,-270.261688,-165.070084,416.465851,-285.452820,-197.054138,448.277374,-272.622925,-205.059067
369,0,469.163879,-122.636559,-126.998024,434.958313,-223.138550,-125.808578,388.047791,-125.155212,-133.592712,426.224304,-270.327301,-164.900146,416.515564,-285.505371,-196.877716,448.655396,-272.605713,-204.980179
370,0,469.278229,-122.603233,-126.923782,435.037598,-223.123367,-125.665215,388.080048,-125.180275,-133.463303,426.289032,-270.377747,-164.671295,416.525116,-285.615662,-196.616577,448.938446,-272.624939,-204.772430
371,0,469.421722,-122.721184,-126.931267,435.134979,-223.138840,-125.328796,388.164795,-125.174400,-133.308899,426.320435,-270.484283,-164.331482,416.539429,-285.740997,-196.203583,449.149506,-272.737488,-204.492462
372,0,469.508331,-122.682739,-126.928520,435.176483,-223.023590,-125.131561,388.319366,-125.137566,-133.128250,426.393616,-270.484375,-163.767395,416.532166,-285.878632,-195.652954,449.314758,-272.864594,-204.096039
373,0,469.581848,-122.585228,-126.876671,435.282227,-222.986542,-124.570473,388.416443,-125.112221,-132.943176,426.422058,-270.593048,-162.996613,416.470825,-286.006805,-194.891296,449.386963,-272.982635,-203.532623
374,0,469.713989,-122.542282,-126.743492,435.384979,-222.976486,-123.705101,388.371155,-125.036926,-132.700912,426.363098,-270.722412,-161.949448,416.404633,-286.187195,-193.871765,449.364563,-273.190582,-202.770050
375,0,469.804657,-122.447525,-126.674355,435.477051,-222.865494,-122.718254,388.562805,-124.985771,-132.593811,426.295258,-270.929871,-160.609039,416.259674,-286.336609,-192.522079,449.178040,-273.580078,-201.715530
376,0,469.907440,-122.321594,-126.566422,435.522644,-222.792038,-121.283508,388.575623,-124.803467,-132.220245,426.156830,-271.273743,-158.769318,415.976318,-286.499481,-190.945496,448.747589,-274.049774,-200.277603
377,0,469.917480,-122.207680,-126.475975,435.513947,-222.692352,-119.643471,388.725922,-124.620071,-131.889175,425.968628,-271.539337,-156.708771,415.704071,-286.725983,-188.953323,448.149475,-274.788544,-198.385651
378,0,469.984314,-122.095505,-126.303253,435.488403,-222.574448,-117.708206,388.983063,-124.518272,-131.580887,425.727875,-271.630157,-154.486298,415.320862,-286.888641,-186.730087,447.387054,-275.602295,-196.168518
379,0,470.027466,-122.001465,-126.109406,435.518829,-222.418411,-115.578224,389.901093,-124.711189,-131.793121,425.543060,-271.850769,-151.908936,414.880493,-287.119263,-184.251343,446.582123,-276.533112,-193.687836
380,0,470.100342,-121.852798,-125.881775,435.644775,-222.214340,-113.314850,389.699951,-124.281075,-130.555679,425.292633,-272.045776,-149.188309,414.365845,-287.299500,-181.619614,445.580627,-277.380859,-191.104050
381,0,470.154327,-121.646950,-125.612244,435.854523,-221.930878,-111.058685,389.978424,-124.171524,-129.858826,425.135651,-272.226257,-146.342422,413.858612,-287.524536,-178.859131,444.570557,-278.188812,-188.412018
382,0,470.034332,-121.347862,-125.578972,436.192902,-221.596191,-108.705421,390.520813,-124.341492,-129.552673,424.978699,-272.358978,-143.425247,413.448883,-287.671173,-175.930832,443.352142,-278.861816,-185.814529
383,0,470.319489,-121.235863,-125.198616,436.520264,-221.220245,-106.346146,390.814728,-124.231140,-128.720657,424.904205,-272.448273,-140.471939,412.709045,-287.374939,-173.535110,442.003357,-279.423157,-183.372818
384,0,470.317627,-120.968307,-125.032516,436.961487,-220.815994,-104.043259,390.686554,-123.849899,-127.396805,424.849823,-272.427216,-137.588531,412.251465,-287.201080,-170.938156,440.312500,-279.690125,-181.029663
385,0,470.579987,-120.930214,-124.646828,437.350464,-220.462967,-101.632622,390.947327,-123.740120,-126.549568,424.928528,-272.421326,-134.674789,411.621063,-286.506683,-168.808945,438.419128,-279.809296,-178.867630
386,0,470.678314,-120.772293,-124.354843,437.832977,-220.096497,-99.242973,391.481598,-123.862671,-126.283318,424.937653,-272.414734,-131.897476,411.125305,-285.748077,-166.774506,436.455719,-279.748535,-176.740417
387,0,470.692963,-120.514191,-124.239227,438.251160,-219.672775,-96.938965,391.577881,-123.618866,-125.355881,424.968628,-272.114685,-129.436707,410.505096,-284.857422,-164.924133,434.824066,-279.570007,-174.606033
388,0,470.753113,-120.368294,-123.903938,438.499146,-219.257462,-94.745506,392.040741,-123.451729,-124.826653,424.786621,-271.867493,-126.976013,409.892120,-283.923676,-162.935776,433.495636,-279.247345,-172.876099
389,0,470.896912,-120.233917,-123.486542,438.671722,-218.740692,-92.658218,391.936768,-123.350365,-124.134148,424.370087,-271.734344,-124.461533,409.277679,-282.932007,-161.238617,432.642853,-278.947205,-170.990311
390,0,471.023315,-120.112823,-123.033546,438.741730,-218.205170,-90.623817,392.081573,-123.245750,-123.696648,424.071808,-271.441833,-122.127090,408.651733,-281.860748,-159.561005,432.049530,-278.418121,-169.332352
391,0,471.079132,-120.030205,-122.624077,438.706726,-217.678375,-88.741417,392.168610,-123.137711,-123.378113,423.800629,-271.053711,-120.013863,408.299377,-280.859985,-157.992508,431.398041,-277.898590,-167.779602
392,0,471.136169,-120.026146,-122.100372,438.557800,-217.153885,-87.026024,392.208282,-123.081657,-123.106148,423.613647,-270.985931,-117.924522,407.877380,-279.590912,-156.775101,430.721222,-277.246765,-166.252380
393,0,471.169617,-119.968483,-121.644226,438.479248,-216.732285,-85.460884,392.229858,-122.985611,-122.895294,423.309753,-270.762268,-116.081604,407.590546,-278.320251,-155.666412,429.791168,-276.447571,-165.005569
394,0,471.167755,-119.919052,-121.237221,438.383453,-216.368149,-84.088631,392.325500,-122.949799,-122.800682,423.032776,-270.574860,-114.578087,407.224670,-277.031586,-154.741440,429.121368,-275.743378,-163.653519
395,0,471.157471,-119.863556,-120.888641,438.320892,-216.033035,-83.013741,392.347870,-122.934227,-122.625984,422.679749,-270.425781,-113.327583,406.656921,-274.928375,-154.287247,428.353668,-274.811005,-162.872025
396,0,471.126343,-119.855110,-120.634102,438.207367,-215.782303,-82.128265,392.304504,-122.910332,-122.448410,422.343567,-270.311615,-112.422150,406.287933,-273.537384,-153.844147,428.016022,-273.833069,-162.178513
397,0,471.114197,-119.851906,-120.449646,438.146240,-215.635330,-81.413322,392.217651,-122.881287,-122.292175,422.076080,-270.230743,-111.728073,405.796631,-272.052429,-153.617432,427.841125,-272.967285,-161.745941
398,0,471.063446,-119.854797,-120.414108,438.116394,-215.518005,-80.927956,392.178070,-122.928009,-122.221489,421.768707,-270.124512,-111.276909,405.535034,-270.780731,-153.448471,427.584534,-272.053406,-161.650238
399,0,471.018951,-119.897575,-120.450470,438.031647,-215.438522,-80.667122,392.082886,-122.885414,-122.194313,421.476044,-270.095703,-111.103661,405.196350,-269.557404,-153.490967,427.196960,-271.078003,-161.702576
400,0,470.925262,-119.954178,-120.541466,437.954559,-215.466553,-80.594223,391.943604,-122.908997,-122.224144,420.932037,-270.014404,-111.165573,404.846222,-268.253235,-153.735992,426.550934,-269.603668,-162.199066
401,0,470.867950,-120.035995,-120.673943,437.809296,-215.560669,-80.649025,391.829620,-122.888733,-122.346931,420.622864,-270.131104,-111.444221,404.498657,-266.702637,-154.179718,425.957611,-268.319855,-162.630905
402,0,470.762238,-120.137932,-120.830849,437.601868,-215.740417,-80.856918,391.732544,-122.891701,-122.635689,420.177734,-270.211212,-111.998520,404.181213,-265.128723,-154.849777,425.141907,-266.659363,-163.260483
403,0,470.676727,-120.245827,-121.021225,437.379242,-215.939362,-81.247063,391.634705,-122.955612,-122.954086,419.747955,-270.246033,-112.678123,403.960938,-263.723419,-155.662979,424.481689,-265.117249,-164.090576
404,0,470.604736,-120.293030,-121.287727,437.088501,-216.164642,-81.833305,391.501556,-122.985687,-123.358131,419.361877,-270.418488,-113.594330,403.828918,-262.590942,-156.587082,424.059998,-263.893433,-164.948853
405,0,470.514038,-120.391151,-121.601822,436.848297,-216.444016,-82.527603,391.397186,-123.095055,-123.914146,419.221375,-270.493835,-114.694412,403.866241,-261.722717,-157.505829,423.971863,-263.103180,-165.783737
406,0,470.403961,-120.473915,-121.978218,436.673279,-216.728897,-83.374176,391.262604,-123.128227,-124.364227,419.110107,-270.832855,-115.737465,403.940155,-260.858582,-158.556244,424.064545,-262.179321,-166.884033
407,0,470.306458,-120.591354,-122.389290,436.511719,-217.081772,-84.286636,391.202698,-123.237007,-124.969032,418.882507,-270.936768,-117.162392,404.063965,-259.967133,-159.708862,424.287842,-261.185577,-168.105591
408,0,470.219360,-120.722931,-122.846809,436.410828,-217.439117,-85.345169,390.730743,-123.199326,-125.322624,418.789459,-271.032684,-118.746056,404.181702,-259.106750,-160.939606,424.499084,-259.980072,-169.502853
409,0,470.151794,-120.876633,-123.409706,436.369232,-217.829239,-86.448990,390.974182,-123.407814,-126.190765,418.821136,-271.357819,-120.250565,404.249207,-258.000916,-162.256943,424.650848,-258.793060,-170.960464
410,0,470.087341,-120.885315,-124.077232,436.313446,-218.201721,-87.597275,390.917267,-123.546219,-126.830833,418.654480,-271.552521,-121.825119,404.262543,-256.325073,-163.894302,424.672882,-257.749786,-172.294785
411,0,470.081451,-121.104507,-124.523468,436.254608,-218.623947,-88.746101,390.777283,-123.695808,-127.485085,418.464661,-271.707092,-123.396614,404.281097,-255.300522,-165.133621,424.508820,-256.565826,-173.613068
412,0,470.201752,-121.262245,-124.937996,436.169067,-218.937881,-89.785995,390.669678,-123.824921,-128.129242,418.244537,-271.854675,-124.777359,404.278442,-254.310013,-166.243164,424.290070,-255.478714,-174.762131
413,0,470.230225,-121.468307,-125.371857,436.052490,-219.208664,-90.752136,390.590363,-123.917564,-128.754730,418.051117,-272.007172,-126.080063,404.361481,-253.395462,-167.106918,424.136871,-254.617279,-175.647858
414,0,470.245331,-121.624275,-125.710381,435.944336,-219.463623,-91.685173,390.431305,-124.007645,-129.350952,417.704590,-272.007172,-127.373947,404.541351,-252.401978,-167.832962,424.114380,-253.495392,-176.484512
415,0,470.171875,-121.725609,-125.984894,435.805206,-219.741470,-92.374893,390.172119,-124.056526,-129.758865,417.444550,-272.112854,-128.373123,404.669312,-251.348114,-168.381683,424.156860,-252.409164,-177.095062
416,0,470.151001,-121.841515,-126.109604,435.645508,-220.007141,-92.843796,390.131775,-124.223099,-130.359375,417.132080,-272.195190,-129.280777,404.779724,-250.126724,-168.736771,424.228027,-251.314728,-177.534744
417,0,470.010529,-121.968109,-126.339378,435.451630,-220.162842,-93.083061,390.001556,-124.278809,-130.713333,416.770020,-272.242096,-129.841431,404.846710,-248.840897,-168.798019,424.127808,-250.134796,-177.847946
418,0,469.858459,-122.065315,-126.394226,435.232330,-220.295898,-93.144379,389.862213,-124.346947,-131.089050,416.310028,-272.362213,-130.071228,404.684875,-247.341644,-168.822800,423.902588,-249.050018,-177.832123
419,0,469.819366,-122.174164,-126.287056,435.002991,-220.367706,-92.991745,389.602295,-124.367699,-131.274734,415.878174,-272.140533,-130.348557,404.723114,-246.216675,-168.366745,423.592285,-248.012222,-177.537857
420,0,469.611359,-122.260254,-126.257103,434.776306,-220.463303,-92.705246,389.307678,-124.422676,-131.506577,415.268402,-271.965576,-130.459747,404.606262,-244.900543,-167.743073,423.121429,-246.640060,-177.211411
421,0,469.409851,-122.387634,-126.285133,434.513672,-220.529800,-92.229591,389.095520,-124.458450,-131.697296,414.478455,-271.569916,-130.578735,404.344452,-242.915314,-167.114746,422.628357,-245.026352,-176.752151
422,0,469.174042,-122.549896,-126.254143,434.228149,-220.612823,-91.590645,388.548218,-124.342957,-131.628860,413.460144,-271.056152,-130.703003,404.036407,-240.832916,-166.349747,422.020599,-243.075562,-176.163879
423,0,468.925507,-122.779152,-126.225800,433.969696,-220.720703,-90.833061,388.349487,-124.444939,-131.931503,412.355469,-270.021332,-131.113358,403.494873,-238.511871,-165.473206,421.180878,-240.565292,-175.534805
424,0,468.606598,-122.970299,-126.255882,433.712219,-220.748444,-89.930374,388.267273,-124.661324,-132.412582,411.089844,-268.977325,-131.367676,403.064789,-236.163818,-164.689453,420.229034,-237.699829,-174.574249
425,0,468.131775,-123.136604,-126.435966,433.504425,-220.844589,-89.005943,387.929199,-124.763550,-132.742249,410.059174,-267.522217,-131.856415,402.746429,-233.881958,-163.622650,419.242737,-233.875580,-173.905853
426,0,467.797791,-123.400215,-126.358154,433.381348,-220.904358,-88.051788,387.610535,-124.966515,-133.071716,409.003906,-266.007874,-132.341232,402.624939,-229.744736,-162.524506,418.793121,-231.413956,-172.695862
427,0,467.578461,-123.652618,-126.191246,433.339142,-220.915405,-87.123016,387.292969,-125.125244,-133.462341,408.290833,-264.517792,-132.751480,402.625031,-227.548904,-161.762070,418.608459,-229.017212,-171.539780
428,0,467.295837,-123.820671,-126.205177,433.428589,-220.957520,-86.324303,386.987671,-125.328484,-133.847046,407.669678,-262.993439,-133.163818,402.293762,-223.602188,-161.201553,418.520020,-226.679565,-170.294769
429,0,466.993713,-123.916664,-126.293320,433.634491,-221.001160,-85.713860,386.812164,-125.475540,-134.171890,407.638428,-261.667053,-133.701218,403.131256,-222.516678,-159.740082,418.135986,-223.296707,-170.172318
430,0,466.793427,-124.047585,-126.495705,433.884857,-221.054688,-85.401604,386.699921,-125.604050,-134.473724,407.493225,-260.579254,-134.222610,,,,417.734772,-220.640488,-169.832245
431,0,466.697632,-124.139565,-126.594231,434.169128,-221.177414,-85.455482,386.750336,-125.660049,-134.646225,407.476135,-259.790527,-134.941833,,,,417.562775,-219.131638,-169.595428
432,0,466.840027,-124.364342,-126.650108,434.494659,-221.406342,-85.866425,386.797943,-125.653061,-134.724106,407.414917,-259.154572,-135.883301,,,,417.430756,-217.946655,-169.971268
433,0,466.939941,-124.535568,-126.945839,434.768555,-221.717453,-86.588509,386.804749,-125.694839,-134.870407,407.139465,-258.509033,-137.037537,,,,416.907257,-216.299347,-170.652649
434,0,466.949951,-124.700287,-127.379906,435.029663,-222.080276,-87.645119,386.828766,-125.687225,-135.190475,406.863739,-257.968292,-138.439758,,,,416.533173,-215.267059,-171.528992
435,0,467.003479,-124.865356,-127.869186,435.266510,-222.469284,-88.853630,386.838562,-125.707848,-135.580322,406.810333,-257.523651,-140.154175,,,,416.170349,-214.182098,-172.655060
436,0,466.906799,-124.995712,-128.440933,435.404724,-222.893188,-90.117455,386.866364,-125.773727,-136.098709,406.586151,-257.127991,-141.829376,,,,415.918274,-213.372330,-173.902496
437,0,466.865997,-125.029411,-128.917114,435.315002,-223.277863,-91.356285,386.870667,-125.817093,-136.717651,406.550720,-256.848511,-143.553070,,,,416.193604,-213.003632,-175.166138
438,0,466.897064,-125.182655,-129.088531,435.102905,-223.679337,-92.503883,386.737457,-125.901428,-137.349854,406.359253,-256.548248,-145.263840,,,,415.827820,-212.724487,-174.763504
439,0,466.643585,-125.180542,-129.417740,434.752197,-224.095306,-93.541481,386.565521,-125.980095,-137.968063,406.103699,-256.313660,-146.863281,,,,416.078186,-211.571564,-176.931854
440,0,466.475433,-125.326736,-129.541901,434.376923,-224.431549,-94.393600,386.343231,-126.059921,-138.513535,406.146393,-256.111755,-148.168060,,,,416.329651,-211.042816,-177.573212
441,0,466.333435,-125.513580,-129.547150,433.983185,-224.754654,-95.104675,386.201843,-126.153725,-139.044693,405.856842,-255.954742,-149.230865,,,,,,
442,0,466.061920,-125.701355,-129.541306,433.615723,-225.037598,-95.725471,386.320343,-126.187920,-139.488159,405.464508,-255.846115,-150.175247,,,,415.034485,-211.051819,-178.022842
443,0,465.821594,-125.863358,-129.458923,433.233521,-225.346100,-96.196571,386.103485,-126.281517,-139.769455,405.145294,-255.719177,-150.812241,,,,415.438507,-211.034088,-180.480103
444,0,465.413727,-126.007614,-129.533401,432.845886,-225.562958,-96.532272,385.918884,-126.292915,-139.969101,404.776245,-255.619675,-151.362640,,,,415.245911,-209.614883,-180.176529
445,0,465.160217,-126.136154,-129.410141,432.470367,-225.695740,-96.795578,385.738953,-126.314743,-140.166992,404.405121,-255.476776,-151.840607,,,,415.074982,-210.658829,-180.839767
446,0,464.920197,-126.187355,-129.353149,432.105927,-225.798080,-97.027229,385.567474,-126.300827,-140.307541,404.106720,-255.347610,-152.284576,,,,414.841431,-210.361176,-181.086746
447,0,464.603943,-126.180130,-129.485992,431.862701,-225.848633,-97.228439,385.050568,-126.297501,-140.323730,403.897827,-255.228729,-152.609665,,,,414.495605,-208.973267,-181.086990
448,0,464.524261,-126.188087,-129.486694,431.717651,-225.881821,-97.383163,384.986359,-126.284897,-140.477112,403.822571,-255.121948,-152.818939,,,,414.433990,-208.814224,-181.253220
449,0,464.507446,-126.197693,-129.498322,431.648499,-225.848068,-97.452156,384.976135,-126.219078,-140.526825,403.800598,-255.047653,-152.936020,,,,414.420715,-208.800735,-181.266678
450,0,464.543701,-126.146408,-129.549774,431.742310,-225.777328,-97.398849,384.987579,-126.232742,-140.533646,403.881134,-255.032486,-152.841415,,,,414.391327,-208.860886,-181.115524
451,0,464.640656,-126.109810,-129.627625,431.936707,-225.660568,-97.262161,385.064972,-126.176598,-140.467270,404.036255,-255.034958,-152.642288,,,,414.493866,-209.903229,-181.291550
452,0,464.803192,-126.040352,-129.716660,432.312653,-225.521286,-97.016571,385.193817,-126.196655,-140.338745,404.407867,-255.105652,-152.313797,,,,414.797821,-209.883072,-180.809891
453,0,465.079559,-126.005363,-129.697906,432.743805,-225.404144,-96.745323,385.697693,-126.141609,-140.248245,404.584991,-255.169388,-151.867172,,,,414.960571,-209.966583,-180.402802
454,0,465.254974,-125.943687,-129.739304,433.171448,-225.266510,-96.444221,385.884521,-126.113220,-139.970840,405.055145,-255.223099,-151.263489,,,,414.998077,-210.084595,-180.059875
455,0,465.422699,-125.894203,-129.801819,433.569641,-225.093933,-96.133240,386.042572,-126.125679,-139.774811,405.248016,-255.298645,-150.832809,,,,414.544891,-210.694458,-178.364151
456,0,465.582794,-125.851349,-129.831284,433.846954,-224.960281,-95.792404,386.113953,-126.095848,-139.605911,405.408264,-255.400269,-150.444473,,,,,,
457,0,465.741302,-125.787262,-129.689865,434.066833,-224.768524,-95.506767,386.171722,-126.106155,-139.484726,405.613708,-255.496445,-149.961227,,,,,,
458,0,465.823425,-125.741646,-129.643555,434.200287,-224.594650,-95.139458,386.200928,-126.089142,-139.463348,405.992218,-255.625366,-149.456497,,,,415.706207,-211.546646,-179.672012
459,0,465.832886,-125.727356,-129.605347,434.158478,-224.443924,-94.800438,386.211700,-126.064285,-139.411652,406.108093,-255.726456,-149.043228,,,,415.846588,-211.644653,-179.427994
460,0,465.828430,-125.661568,-129.566956,434.107422,-224.281738,-94.475586,386.174988,-126.002472,-139.355667,406.152374,-255.790649,-148.651031,,,,415.928711,-211.698639,-179.167938
461,0,465.817169,-125.629860,-129.479706,434.034912,-224.152588,-94.204674,386.203308,-125.976860,-139.310043,406.099457,-255.836166,-148.260345,,,,415.913086,-211.656418,-178.786438
462,0,465.719269,-125.594543,-129.499756,433.974609,-224.051392,-93.864594,386.180939,-125.929367,-139.203491,405.964966,-255.873260,-147.808990,,,,,,
463,0,465.711273,-125.591591,-129.502258,433.955170,-223.883255,-93.515755,386.182709,-125.840530,-139.052002,405.686798,-255.921356,-147.273636,,,,415.072937,-211.567749,-176.985733
464,0,465.773254,-125.539017,-129.475922,434.046600,-223.710159,-93.071175,386.236603,-125.830101,-138.921265,405.655182,-256.002106,-146.641098,,,,415.346771,-211.624374,-177.472382
465,0,465.997375,-125.561058,-129.232574,434.183441,-223.501694,-92.536667,386.276520,-125.830040,-138.679825,405.770386,-256.089966,-145.828033,,,,415.246948,-211.273132,-176.282959
466,0,466.019806,-125.470741,-129.249878,434.409241,-223.218170,-91.850052,386.323242,-125.781181,-138.421768,406.034882,-256.240753,-144.856674,,,,415.020142,-212.106476,-175.297165
467,0,466.189728,-125.364288,-129.099136,434.647064,-222.865189,-91.039604,386.427521,-125.752983,-138.145187,406.230713,-256.433411,-143.789673,,,,415.089539,-211.951797,-174.338547
468,0,466.350342,-125.274048,-128.902832,434.938568,-222.491684,-90.131279,386.286346,-125.786453,-137.688629,406.695892,-256.561005,-142.537109,,,,415.746033,-212.551758,-174.273560
469,0,466.441437,-125.105339,-128.779312,435.182281,-222.040085,-89.094795,386.459015,-125.732361,-137.346451,407.061615,-256.735565,-141.209045,,,,416.024689,-212.930359,-173.338791
470,0,466.308014,-124.998703,-128.848526,435.446075,-221.623932,-88.039764,386.678314,-125.661430,-136.872971,407.384247,-256.891235,-139.697800,,,,416.298706,-213.369568,-172.240997
471,0,466.493073,-124.853989,-128.630829,435.809753,-221.178589,-86.854897,386.840668,-125.609962,-136.319733,408.025574,-257.014648,-138.212311,,,,416.389130,-213.698608,-171.139267
472,0,466.650421,-124.706825,-128.433914,436.236053,-220.735947,-85.694717,387.042999,-125.516113,-135.660721,408.209229,-257.214447,-136.464188,,,,416.606384,-214.238449,-169.828278
473,0,466.833374,-124.571136,-128.202087,436.729095,-220.257751,-84.473961,387.208801,-125.449371,-134.946182,408.578705,-257.308777,-134.690887,,,,416.645905,-214.719193,-168.393829
474,0,467.008881,-124.334236,-127.961533,437.245026,-219.719498,-83.225304,387.350525,-125.378983,-134.210419,408.953339,-257.459747,-132.796249,,,,416.810394,-215.234985,-167.241531
475,0,466.985809,-124.098221,-127.866386,437.722198,-219.200455,-81.916275,387.583618,-125.322548,-133.432556,409.297577,-257.629944,-130.945023,,,,417.101013,-215.827286,-165.816406
476,0,467.140533,-123.916504,-127.506462,438.140228,-218.573685,-80.515808,387.785217,-125.198441,-132.642365,409.693237,-257.807251,-128.817398,,,,417.469543,-216.515915,-164.270325
477,0,467.330658,-123.715706,-127.119781,438.490906,-217.905853,-79.058044,388.011871,-125.068291,-132.023102,410.279175,-258.034088,-126.734764,,,,417.869080,-217.407639,-162.915985
478,0,467.486938,-123.522697,-126.705704,438.791107,-217.263702,-77.606728,388.174988,-124.957108,-131.400375,410.668640,-258.303741,-124.553947,,,,418.381134,-218.550262,-161.518250
479,0,467.618225,-123.261185,-126.288605,439.006775,-216.565704,-76.148926,388.340393,-124.896439,-130.810638,411.363953,-258.555542,-122.264137,,,,418.902161,-219.786530,-159.993134
480,0,467.812469,-123.090469,-125.741364,439.177399,-215.938370,-74.822937,388.850830,-124.750954,-130.259583,411.896454,-258.940063,-120.228706,404.912292,-226.537201,-147.056290,419.310394,-220.979736,-158.939957
481,0,467.986725,-122.917702,-125.300423,439.282288,-215.401962,-73.643196,388.955231,-124.620911,-129.558212,412.410431,-259.391876,-118.313492,405.562225,-227.152832,-146.424469,419.758118,-222.270355,-157.891052
482,0,468.122925,-122.738930,-124.856392,439.311523,-214.971344,-72.688759,388.880219,-124.494530,-128.785553,412.908508,-259.931549,-116.428680,404.854248,-221.477859,-147.511353,419.890137,-223.454071,-157.121506
483,0,468.201508,-122.561409,-124.442795,439.351318,-214.646774,-71.972389,389.072815,-124.335548,-128.072632,413.434998,-260.751404,-114.762123,406.071564,-229.190628,-144.575500,420.512817,-226.351746,-156.238052
484,0,468.234375,-122.371506,-124.021553,439.313507,-214.484528,-71.503479,389.229492,-124.121605,-127.319511,413.819336,-261.574158,-113.269287,405.479980,-229.888153,-145.174255,420.362640,-227.909683,-156.070694
485,0,468.305603,-122.260025,-123.645119,439.281342,-214.392990,-71.270210,389.263519,-123.953575,-126.558479,414.142609,-262.386139,-112.066490,405.023071,-230.569641,-145.398148,420.424225,-230.235535,-156.036728
486,0,468.281219,-122.079254,-123.449753,439.202515,-214.437439,-71.219246,389.314880,-123.828171,-125.816452,414.378754,-263.165680,-111.121414,404.838287,-232.323746,-145.458984,420.391815,-232.540039,-156.100464
487,0,468.301270,-122.041229,-123.171562,439.110046,-214.524902,-71.398331,389.330536,-123.692825,-125.166718,414.667358,-263.844849,-110.456429,404.588348,-233.903610,-145.813034,420.698151,-235.693893,-156.160904
488,0,468.256165,-121.968529,-122.883820,438.952209,-214.668701,-71.723434,389.232391,-123.553520,-124.563377,414.967896,-264.777771,-109.925766,404.552521,-236.144363,-146.200974,420.729950,-237.942963,-156.757706
489,0,468.190338,-121.862724,-122.499825,438.746826,-214.898712,-72.188911,389.230286,-123.427643,-124.106544,415.394073,-265.388489,-109.903183,404.068939,-238.323715,-147.178162,420.626007,-239.717606,-157.589523
490,0,468.137573,-121.736320,-122.092438,438.453278,-215.191162,-72.736580,389.142120,-123.314384,-123.697090,415.567902,-265.994629,-110.057228,403.422760,-240.082718,-148.082031,420.481628,-241.194092,-158.868973
491,0,468.052307,-121.688858,-121.678749,438.052551,-215.520813,-73.367279,389.070160,-123.228546,-123.310921,415.594757,-266.472198,-110.420860,402.867554,-242.213211,-149.003891,420.148590,-242.539536,-160.098206
492,0,468.047058,-121.710045,-121.185806,437.520660,-215.840454,-74.018913,388.966919,-123.193817,-123.059540,415.457764,-266.862946,-110.902779,402.251801,-244.003098,-150.157974,419.745270,-243.981689,-161.128967
493,0,467.955017,-121.640137,-120.856163,436.928375,-216.141937,-74.717361,388.905426,-123.115799,-122.955681,415.215790,-267.172699,-111.550987,401.600067,-245.807632,-151.230392,419.267029,-245.502975,-162.278381
494,0,467.898254,-121.569107,-120.522873,436.369385,-216.429321,-75.457420,388.857483,-123.011124,-122.868324,414.915222,-267.425934,-112.220558,400.812073,-247.288681,-152.658783,418.918274,-247.480545,-163.244659
495,0,467.828369,-121.458473,-120.221863,435.837494,-216.698425,-76.267693,388.733582,-122.914192,-122.740807,414.710358,-267.702271,-112.898392,400.766296,-250.355957,-153.450470,418.590424,-249.942093,-163.939316
496,0,467.792969,-121.414322,-119.969513,435.406403,-216.959091,-77.204872,388.681396,-122.815041,-122.709229,414.780304,-268.036530,-113.669281,400.362610,-252.336807,-154.592377,418.311737,-251.965668,-165.003738
497,0,467.781464,-121.381248,-119.767754,435.138245,-217.257339,-78.150993,388.649048,-122.738716,-122.529907,414.976135,-268.341125,-114.552254,399.963959,-254.806168,-155.577240,418.469086,-254.042831,-165.865677
498,0,467.795441,-121.335365,-119.662666,434.953674,-217.548828,-79.153221,388.276917,-122.631706,-122.136963,415.182007,-268.604095,-115.502762,399.887360,-257.075714,-156.459457,418.640137,-255.499130,-167.054291
499,0,467.872681,-121.317772,-119.600250,434.930878,-217.854584,-80.195389,388.665771,-122.646675,-122.107681,415.612640,-268.858093,-116.584267,399.510071,-258.785919,-157.583069,419.000061,-257.036438,-168.223785
500,0,467.989807,-121.268097,-119.587021,435.028900,-218.192581,-81.223251,388.652649,-122.650665,-121.837456,416.115173,-269.079193,-117.655464,399.526703,-260.988922,-158.563843,419.112457,-258.242065,-169.273422
501,0,468.174866,-121.173744,-119.553162,435.237335,-218.502090,-82.329491,388.742004,-122.713181,-121.508766,416.729065,-269.277313,-118.756401,399.492462,-263.436554,-159.207291,419.299286,-259.344269,-170.108612
502,0,468.439667,-121.102798,-119.485443,435.549255,-218.748352,-83.420815,388.951447,-122.754410,-121.204773,417.201416,-269.290863,-119.852531,399.505737,-266.257874,-159.708084,419.802216,-260.365204,-171.262100
503,0,468.750458,-120.976166,-119.441658,435.782166,-218.916336,-84.401436,389.210938,-122.757935,-120.810898,417.313385,-269.026855,-121.069595,399.310333,-268.903656,-160.049347,420.410156,-260.794586,-171.953674
504,0,469.049835,-120.823387,-119.361534,436.099243,-219.147293,-85.312973,389.510803,-122.592796,-120.227661,417.374176,-268.810760,-122.159317,400.135071,-272.404510,-159.673386,420.225494,-260.876068,-172.834152
505,0,469.339142,-120.718140,-119.217758,436.366058,-219.269348,-86.145081,389.797577,-122.566544,-119.972702,417.708984,-268.666138,-123.207527,400.098602,-272.620087,-160.530777,419.979431,-260.980774,-173.771286
506,0,469.672668,-120.580002,-119.085770,436.544037,-219.354401,-86.772827,390.116577,-122.500122,-119.823311,418.201965,-268.459045,-124.256638,400.788849,-273.952698,-160.755112,420.713806,-261.253082,-174.556290
507,0,469.996124,-120.457413,-118.992966,436.725250,-219.448685,-87.282761,390.431946,-122.447823,-119.768692,418.328461,-268.126740,-125.208527,401.070984,-274.534698,-161.040939,421.256409,-261.489624,-175.021439
508,0,470.324951,-120.321251,-118.906090,436.862457,-219.495575,-87.628647,390.933990,-122.522415,-120.087158,418.380432,-267.755646,-125.997025,401.387024,-274.961517,-161.262466,421.619812,-261.492462,-175.488800
509,0,470.657349,-120.186241,-118.877136,436.946228,-219.496979,-87.839729,391.284851,-122.422226,-120.170853,418.478027,-267.357147,-126.972466,401.618927,-275.223969,-161.415146,421.856476,-261.481750,-175.676712
510,0,470.957031,-120.071526,-118.813499,437.100800,-219.593048,-87.830727,391.536591,-122.286606,-120.148323,418.622009,-266.904907,-127.675789,401.891602,-275.152405,-161.559113,422.021332,-261.388458,-175.791748
511,0,471.265137,-120.057289,-118.725998,437.319305,-219.617645,-87.674805,391.812988,-122.320686,-120.314476,418.727173,-266.515564,-128.031799,402.219360,-274.910431,-161.642380,422.469604,-261.131256,-175.917053
512,0,471.522766,-119.996201,-118.709793,437.622711,-219.632080,-87.345840,392.326294,-122.461800,-120.966156,418.865936,-266.151123,-128.198517,402.579865,-274.713898,-161.449524,422.869537,-260.897400,-176.020950
513,0,471.748871,-119.955322,-118.749329,438.013641,-219.605331,-86.930695,392.738861,-122.551979,-121.337936,419.160950,-265.848572,-128.115372,403.110901,-274.571869,-161.130386,423.439819,-260.909027,-175.760040
514,0,471.933868,-119.923431,-118.808144,438.364502,-219.528488,-86.399086,393.153687,-122.692627,-121.775604,419.557800,-265.584534,-127.903282,403.711090,-274.480347,-160.755981,424.117310,-260.971802,-175.412598
515,0,472.110657,-119.926514,-118.847374,438.643219,-219.457626,-85.795036,392.871521,-122.686974,-121.735832,420.073853,-265.402344,-127.530251,404.329132,-274.493896,-160.257690,424.662079,-260.982513,-175.019775
516,0,472.303131,-119.890533,-118.824837,438.791168,-219.372711,-85.183578,393.298462,-122.971283,-122.401024,420.544037,-265.346344,-127.041969,404.938446,-274.608673,-159.682175,425.403778,-261.122528,-174.459824
517,0,472.437134,-119.931435,-118.778000,438.830688,-219.269836,-84.664459,393.432037,-122.988182,-122.656174,421.006042,-265.334442,-126.523811,405.547241,-274.821960,-159.153946,426.198456,-261.456268,-173.900162
518,0,472.514893,-119.947495,-118.698524,438.865356,-219.178925,-84.240982,393.356079,-122.930801,-122.536385,421.403168,-265.375122,-126.169456,406.279694,-275.129883,-158.755524,426.847473,-261.620697,-173.507980
519,0,472.527557,-119.984154,-118.671814,438.796112,-219.131714,-83.932121,393.017548,-122.949051,-122.546722,421.825653,-265.570099,-125.819740,406.989471,-275.482880,-158.481049,427.203796,-261.545197,-173.492676
520,0,472.560547,-120.072327,-118.683113,438.719971,-219.087021,-83.695030,393.018616,-123.042442,-122.827721,422.148712,-265.527313,-125.582207,407.366089,-275.692444,-158.125778,427.780151,-261.905060,-173.098267
521,0,472.630280,-120.143982,-118.840034,438.651215,-219.014221,-83.527298,393.348938,-123.263420,-123.341148,422.245178,-265.763672,-125.169991,407.614410,-275.982239,-157.799210,427.961945,-262.130646,-172.927185
522,0,472.593323,-120.287407,-119.250351,438.662903,-218.954987,-83.423683,392.983704,-123.324081,-123.486023,422.465149,-265.776825,-124.963081,407.716583,-276.329346,-157.501205,428.017029,-262.275726,-172.767532
523,0,472.597015,-120.506538,-119.842445,438.804016,-218.937607,-83.506416,392.986725,-123.525223,-123.993484,422.626038,-265.933319,-124.847565,407.816650,-276.670868,-157.249817,427.953674,-262.373840,-172.782959
524,0,472.605286,-120.709579,-120.578850,438.958771,-218.979675,-83.735092,393.601562,-123.820045,-124.811897,422.786346,-266.085968,-124.893791,407.908752,-276.970184,-157.206070,427.911743,-262.479553,-172.934296
525,0,472.605896,-120.949432,-121.345566,439.106689,-219.043152,-84.105743,393.049622,-123.968361,-125.125229,422.936127,-266.265533,-125.082550,408.314209,-277.406281,-157.285995,428.117859,-262.690216,-173.229095
526,0,472.656372,-121.122826,-122.054482,439.177155,-219.135941,-84.621109,393.080536,-124.239441,-125.965729,423.214691,-266.468231,-125.475677,408.705780,-277.685425,-157.584259,428.365601,-262.728333,-173.718307
527,0,472.850281,-121.342674,-122.768723,439.179199,-219.246643,-85.180962,392.921906,-124.473030,-126.881958,423.595398,-266.671265,-126.044098,409.102264,-277.705688,-158.336746,428.707642,-262.723938,-174.470932
528,0,472.880798,-121.532242,-123.744858,439.191406,-219.323242,-85.848740,393.454376,-124.842575,-128.174469,423.820770,-266.860779,-126.631752,409.790253,-278.148224,-158.966812,429.262054,-262.818024,-175.253616
529,0,473.129547,-121.752342,-124.446388,439.285736,-219.495773,-86.585938,393.868652,-125.129745,-129.289032,424.078003,-267.054138,-127.301704,409.876923,-278.209473,-159.862747,429.698975,-262.703491,-176.078476
530,0,473.366852,-121.908989,-125.066177,439.605194,-219.673737,-87.335083,394.045563,-125.425888,-130.044037,424.404633,-267.372162,-127.961990,410.440460,-278.202484,-160.781876,430.009766,-262.627533,-177.015778
531,0,473.714600,-122.031464,-125.551064,440.010681,-219.872482,-88.057938,393.951721,-125.601707,-130.368652,425.010071,-267.382050,-128.827347,410.896881,-278.287506,-161.513901,430.444427,-262.492065,-177.871475
532,0,473.974243,-122.164040,-126.028282,440.495056,-220.102280,-88.584656,394.365356,-125.914291,-130.973785,425.582855,-267.515991,-129.482544,411.433014,-278.387207,-162.158020,430.785675,-262.391907,-178.570129
533,0,474.146973,-122.331924,-126.401413,441.024689,-220.221344,-88.959129,394.203461,-126.114395,-130.982971,426.077972,-267.601013,-129.912872,411.908783,-278.501190,-162.551743,431.013306,-262.255981,-179.090378
534,0,474.319336,-122.382484,-126.660675,441.458679,-220.291687,-89.084793,394.380035,-126.270218,-131.037186,426.449707,-267.706970,-129.991394,412.232117,-278.585754,-162.618973,431.170044,-262.140564,-179.334778
535,0,474.434357,-122.444336,-126.783684,441.862152,-220.250381,-88.997200,394.452820,-126.377243,-130.991394,426.904816,-267.813934,-129.704361,412.495819,-278.777283,-162.252563,431.254852,-261.839722,-179.379440
536,0,474.521393,-122.431839,-126.876457,442.237701,-220.166916,-88.680016,394.265747,-126.317085,-130.680283,427.390472,-267.945251,-129.101730,412.814056,-279.087708,-161.519226,431.242340,-261.531769,-179.219421
537,0,474.538818,-122.435303,-126.893402,442.572357,-220.000977,-88.189972,394.445282,-126.518295,-130.761063,427.809875,-267.999878,-128.244873,413.173096,-279.523010,-160.500488,431.181610,-261.347168,-178.781448
538,0,474.541870,-122.407578,-126.891060,442.839325,-219.749542,-87.634079,394.437836,-126.603287,-130.568802,428.209167,-268.264374,-127.116249,413.558807,-280.064270,-159.161987,430.971466,-261.193970,-178.220825
539,0,474.495392,-122.388283,-126.858681,443.141052,-219.515839,-86.983917,394.357574,-126.697746,-130.449661,428.680298,-268.245850,-126.039413,413.982788,-281.076263,-157.515625,430.709381,-261.206116,-177.484848
540,0,474.440613,-122.345467,-126.790077,443.391754,-219.289856,-86.325027,394.375244,-126.751244,-130.329926,429.144379,-268.282593,-124.925209,414.524139,-281.760773,-155.838394,430.188782,-261.147095,-176.747406
541,0,474.356537,-122.372559,-126.714218,443.589386,-219.081558,-85.725624,394.041412,-126.688675,-129.927277,429.399750,-268.048035,-123.967651,415.009949,-281.991852,-154.532669,429.128510,-260.772400,-175.875046
542,0,474.312469,-122.381149,-126.621902,443.768188,-218.899445,-85.173500,394.309418,-126.744286,-129.961304,429.612091,-268.187592,-123.160149,415.317322,-282.387909,-153.551910,428.183075,-260.458160,-175.361404
543,0,474.270874,-122.377571,-126.610130,443.788544,-218.763748,-84.810936,394.261444,-126.700356,-129.841858,429.938904,-268.250458,-122.658455,415.495270,-282.441803,-153.086197,427.766357,-260.331909,-175.051468
544,0,474.288269,-122.346870,-126.533630,443.771210,-218.714096,-84.582062,394.336060,-126.696541,-129.857773,429.998077,-268.191498,-122.485970,415.497345,-282.319916,-152.889191,427.419250,-260.264313,-174.638565
545,0,474.320312,-122.380104,-126.565697,443.719940,-218.663040,-84.518005,394.050079,-126.682144,-129.734390,429.918945,-268.131836,-122.482002,415.463501,-282.221436,-152.907379,427.350006,-259.916992,-174.789536
546,0,474.325806,-122.389595,-126.613792,443.690216,-218.691940,-84.578278,394.121460,-126.719833,-129.839935,429.843719,-268.085876,-122.663025,415.434052,-282.141510,-153.062988,427.440033,-259.859680,-174.939590
547,0,474.349243,-122.406174,-126.721786,443.670288,-218.726746,-84.722664,394.118652,-126.725960,-129.874573,429.894409,-268.054108,-122.872742,415.443695,-282.103027,-153.350830,427.607330,-259.939972,-175.068283
548,0,474.405273,-122.420815,-126.809776,443.715240,-218.777618,-84.917854,394.381073,-126.870781,-130.232605,429.809753,-267.955170,-123.282539,415.584351,-282.108643,-153.580841,427.766846,-259.743866,-175.305771
549,0,474.425232,-122.417503,-126.886490,443.778595,-218.803986,-85.042015,394.330872,-126.912308,-130.312622,430.031464,-267.732361,-123.601097,415.772186,-282.161835,-153.748962,427.087982,-258.071289,-175.979248
550,0,474.395569,-122.411934,-126.929443,443.833099,-218.862427,-85.102791,394.310608,-126.992729,-130.415421,430.274933,-267.741058,-123.763802,416.025085,-282.283936,-153.776581,427.111328,-257.885925,-176.154541
551,0,474.377319,-122.417732,-126.910019,443.873474,-218.886276,-85.110909,394.218536,-127.051193,-130.519211,430.740936,-267.928833,-123.682381,416.402771,-282.483795,-153.617294,427.093079,-257.798615,-176.214981
552,0,474.341003,-122.442696,-126.857895,443.873962,-218.834702,-85.007172,394.173157,-127.090172,-130.599823,431.031250,-267.959778,-123.545303,416.872437,-282.600983,-153.358749,427.725525,-258.904663,-175.751129
553,0,474.269989,-122.393684,-126.846657,443.875946,-218.744980,-84.793373,394.094391,-127.121719,-130.652542,431.243927,-267.955505,-123.285103,417.097809,-282.829803,-152.939682,427.820221,-259.017700,-175.513367
554,0,474.257355,-122.390053,-126.781914,443.889130,-218.654785,-84.527428,394.448975,-127.110199,-130.701233,431.050018,-267.921875,-122.931290,417.107574,-282.892731,-152.540039,428.043274,-259.288239,-175.141983
555,0,474.247009,-122.365448,-126.757233,443.984192,-218.526764,-84.287163,394.438477,-127.050919,-130.554062,431.199921,-267.866180,-122.613739,416.853363,-282.957642,-152.160767,428.231506,-259.301544,-174.985519
556,0,474.246002,-122.369385,-126.745758,444.084167,-218.411499,-84.044891,394.280457,-126.927734,-130.158707,431.080505,-267.782257,-122.278206,416.679474,-282.848267,-151.872910,428.426056,-259.657532,-174.480713
557,0,474.244446,-122.346176,-126.733643,444.129517,-218.270203,-83.797890,394.330902,-126.854378,-129.961533,430.957855,-267.708221,-121.946976,416.221130,-282.621124,-151.532623,428.213043,-259.907227,-173.898087
558,0,474.256531,-122.301384,-126.683426,444.108398,-218.133316,-83.590485,394.462006,-126.813187,-129.895676,430.748657,-267.589874,-121.649376,416.019592,-282.446777,-151.245422,427.711578,-259.596771,-173.585495
559,0,474.240479,-122.294159,-126.620903,444.047668,-218.022934,-83.344597,394.448730,-126.711754,-129.801712,430.462311,-267.356110,-121.489647,416.037506,-282.354980,-150.947983,427.548584,-259.472046,-173.535431
560,0,474.207428,-122.234016,-126.542572,443.919983,-217.923203,-83.142975,394.572327,-126.679611,-129.866043,430.371338,-267.265045,-121.277428,416.030243,-282.290253,-150.788300,427.356110,-259.417664,-173.220154
561,0,474.185760,-122.171738,-126.480667,443.776642,-217.857635,-82.989471,394.507019,-126.605362,-129.803558,430.306427,-267.212708,-121.166328,416.026733,-282.249451,-150.668304,427.350769,-259.636993,-172.807312
