Trajectories
100
,,sano:Uln,,,sano:MPH3,,,sano:Rad,,,sano:PIP3,,,sano:DIP3,,,sano:DIP4,,,
Frame,Sub Frame,X,Y,Z,X,Y,Z,X,Y,Z,X,Y,Z,X,Y,Z,X,Y,Z
,,mm,mm,mm,mm,mm,mm,mm,mm,mm,mm,mm,mm,mm,mm,mm,mm,mm,mm
1,0,-69.878975,150.545258,17.092722,-13.776220,70.452110,58.844490,-113.489532,84.738129,20.049170,28.992632,32.189770,53.568504,49.992142,6.673019,37.534939,57.192417,32.986660,29.179274
2,0,-69.953178,150.537979,17.141087,-13.855201,70.400490,58.892086,-113.502220,84.649261,20.096367,28.930300,32.155460,53.580776,49.958706,6.680938,37.537388,57.153423,32.932087,29.195047
3,0,-70.002876,150.513443,17.243711,-13.863772,70.336060,58.938160,-113.586388,84.662888,20.133980,28.904793,32.078545,53.601810,49.968102,6.652155,37.530689,57.083054,32.884800,29.201019
4,0,-70.057213,150.498505,17.256929,-13.946385,70.343033,58.981102,-113.606842,84.577713,20.142183,28.860083,32.062897,53.616058,49.902760,6.672566,37.520058,57.017658,32.875935,29.189541
5,0,-70.095055,150.436111,17.261217,-13.971617,70.315125,58.998760,-113.696617,84.683662,20.096262,28.788227,32.074059,53.592518,49.853634,6.663587,37.518024,56.900753,32.862812,29.179838
6,0,-70.234230,150.448807,17.276011,-14.057772,70.278412,58.998734,-113.717598,84.603264,20.097282,28.766191,32.063519,53.605038,49.821396,6.657709,37.499062,56.788723,32.839077,29.185493
7,0,-70.268692,150.379181,17.270611,-14.092414,70.253403,58.995968,-113.798531,84.638351,20.034351,28.748657,32.038410,53.588329,49.874344,6.619762,37.514816,56.757797,32.796612,29.196081
8,0,-70.261864,150.329071,17.253448,-14.126189,70.246536,58.999142,-113.817749,84.566895,20.015104,28.712027,32.044174,53.561325,49.787453,6.659813,37.514797,56.681526,32.779739,29.213348
9,0,-70.387032,150.324295,17.202751,-14.174727,70.245148,58.970848,-113.804405,84.507927,19.953384,28.691732,32.050480,53.551434,49.809570,6.652546,37.486244,56.628014,32.758526,29.199284
10,0,-70.409462,150.278366,17.170954,-14.184376,70.227951,58.935249,-113.872475,84.550201,19.910604,28.665216,32.059704,53.562962,49.809013,6.639317,37.482029,56.565266,32.759056,29.174643
11,0,-70.426300,150.261658,17.178337,-14.223178,70.180008,58.942390,-113.900017,84.468849,19.874269,28.640310,32.040474,53.556561,49.789734,6.647833,37.503578,56.541969,32.720272,29.211637
12,0,-70.521713,150.233521,17.177580,-14.264725,70.158295,58.980824,-113.974648,84.511688,19.843084,28.584438,32.019901,53.590195,49.772297,6.607558,37.496807,56.457851,32.710777,29.194498
13,0,-70.533676,150.156174,17.229359,-14.335409,70.079178,58.988361,-114.009834,84.495712,19.828661,28.545473,31.989258,53.566673,50.217667,6.157709,37.554703,56.449802,32.682770,29.215815
14,0,-70.576324,150.116257,17.212372,-14.355811,70.089966,58.962315,-114.089653,84.534912,19.764381,28.526304,31.992138,53.565453,50.238640,6.161452,37.569893,56.388615,32.680637,29.213394
15,0,-70.632530,150.104630,17.217678,-14.376678,70.070633,58.994034,-114.078217,84.476028,19.773262,28.537882,31.989765,53.580498,50.208443,6.173500,37.562393,56.377777,32.658108,29.223475
16,0,-70.645012,150.047440,17.240137,-14.388394,70.055321,59.007633,-114.095352,84.379951,19.779476,28.541655,31.974983,53.580906,50.268276,6.113567,37.591480,56.405941,32.642715,29.218401
17,0,-70.645500,150.039520,17.254408,-14.372104,70.029770,59.010147,-113.761047,82.428993,20.583984,28.544016,31.975039,53.565395,50.260212,6.122067,37.576927,56.361664,32.643127,29.219578
18,0,-70.670181,150.027298,17.277626,-14.349238,70.021194,59.053989,-114.792229,88.497955,17.913937,28.601397,31.981379,53.593102,49.933834,6.518834,37.532635,56.363255,32.589226,29.205498
19,0,-70.664749,150.034485,17.317270,-14.351068,70.057472,59.084564,-113.741280,82.460777,20.684866,28.642225,31.977325,53.617271,49.950951,6.514370,37.543373,56.368320,32.584023,29.215500
20,0,-70.629532,150.028336,17.429163,-14.270754,70.061806,59.141628,-113.979637,84.323975,19.945553,28.705030,32.010349,53.640312,49.987114,6.524329,37.570774,56.394459,32.580357,29.234758
21,0,-70.625061,150.005615,17.520267,-14.214655,70.085510,59.234707,-114.693542,88.503891,18.130203,28.743906,32.010601,53.663193,50.007309,6.544447,37.568375,56.441048,32.598789,29.251720
22,0,-70.615143,150.034851,17.641607,-14.169575,70.050873,59.288971,-114.670677,88.542343,18.238195,28.764387,32.012325,53.702656,50.004417,6.545449,37.576954,56.426441,32.609203,29.261120
23,0,-70.570107,150.049896,17.777885,-14.121477,70.070862,59.358791,-114.661697,88.669907,18.311583,28.820215,31.955246,53.743515,50.044258,6.513971,37.597076,56.464912,32.576641,29.275993
24,0,-70.565544,150.020203,17.945206,-14.096361,70.035927,59.430729,-113.865158,84.280762,20.472857,28.838339,31.951311,53.772175,50.048016,6.508614,37.580421,56.489155,32.609482,29.280769
25,0,-70.580849,150.035080,18.062853,-14.034961,70.016235,59.522846,-113.848061,84.354553,20.572615,28.904493,31.895685,53.823196,50.055313,6.506675,37.599350,56.513092,32.614658,29.276363
26,0,-70.576599,150.015961,18.213703,-13.989672,69.951599,59.633999,-113.851646,84.334297,20.672594,28.948929,31.863119,53.863529,50.061195,6.488209,37.632710,56.606876,32.572842,29.320675
27,0,-70.556793,150.022949,18.394611,-13.932488,69.917519,59.745926,-113.805550,84.346794,20.753466,28.961744,31.838530,53.933823,50.070507,6.456425,37.647575,56.627850,32.593052,29.334002
28,0,-70.573608,149.975647,18.541077,-13.922921,69.874260,59.834217,-113.731972,84.198830,20.942669,28.995609,31.801693,53.961479,50.116318,6.426652,37.658329,56.690331,32.575249,29.331169
29,0,-70.555046,149.944748,18.747202,-13.924614,69.812645,59.932339,-113.719597,84.166962,21.023937,29.013773,31.709312,53.996876,50.088131,6.377031,37.666328,56.721584,32.603493,29.350269
30,0,-70.586578,149.916962,18.906080,-13.922746,69.747154,60.049236,-113.673416,84.087570,21.179726,29.005608,31.651188,54.064526,50.069237,6.374846,37.673927,56.747948,32.599102,29.327578
31,0,-70.546112,149.850357,19.100025,-13.900656,69.650726,60.163555,-113.694321,84.053757,21.326443,29.013157,31.592842,54.100185,50.100323,6.286627,37.698288,56.797966,32.549736,29.351664
32,0,-70.569733,149.835266,19.319754,-13.910730,69.554489,60.288811,-113.685104,83.950569,21.467438,29.035406,31.497377,54.142540,50.068726,6.272085,37.682594,56.822350,32.557072,29.361742
33,0,-70.574677,149.773453,19.487432,-13.869630,69.445839,60.435883,-113.776299,84.020226,21.549980,29.034798,31.401936,54.209702,50.100517,6.206796,37.707802,56.871670,32.546642,29.365076
34,0,-70.564163,149.685669,19.719500,-13.863255,69.346550,60.558582,-113.766747,83.914719,21.692236,29.010956,31.334526,54.273270,50.110115,6.159574,37.733303,56.944454,32.519566,29.382652
35,0,-70.600266,149.675491,19.889853,-13.885234,69.329338,60.672066,-113.774277,83.886871,21.807362,29.033646,31.254925,54.336239,50.106964,6.117691,37.732964,56.945126,32.527191,29.397335
36,0,-70.590088,149.619888,20.122652,-13.861338,69.211975,60.807949,-114.454445,87.883408,20.042999,29.030293,31.170622,54.362778,50.098320,6.066261,37.746216,56.960659,32.524830,29.400202
37,0,-70.655609,149.599716,20.320713,-13.861156,69.132576,60.923431,-114.429268,87.758904,20.234386,29.048641,31.108786,54.416138,50.145267,6.027504,37.765999,56.983837,32.492138,29.427956
38,0,-70.660431,149.582458,20.546446,-13.846962,69.050560,61.053158,-114.424194,87.634216,20.438049,29.048357,31.044071,54.492661,50.133030,5.972910,37.767826,56.985611,32.517395,29.443771
39,0,-70.672234,149.527939,20.726814,-13.829316,69.023621,61.194771,-114.430077,87.619621,20.553740,29.097532,31.000973,54.552937,50.145370,5.957864,37.778008,57.045040,32.499065,29.469204
40,0,-70.699020,149.508133,20.922695,-13.776680,68.957390,61.330608,-113.785423,83.616051,22.502064,29.155451,30.926674,54.605221,50.150009,5.942801,37.778267,57.087761,32.470181,29.503809
41,0,-70.713753,149.455093,21.144939,-13.746743,68.894737,61.491955,-113.764038,83.490204,22.711903,29.163921,30.907297,54.665794,50.160580,5.897563,37.806274,57.101707,32.464272,29.533401
42,0,-70.742928,149.430038,21.346575,-13.744182,68.848480,61.612431,-113.764938,83.446411,22.837376,29.201923,30.807438,54.729412,50.203083,5.842922,37.811108,57.157120,32.411930,29.574799
43,0,-70.716957,149.349686,21.490696,-13.707803,68.775330,61.744560,-113.751480,83.348053,22.974291,29.245256,30.741474,54.771664,50.232166,5.822167,37.817131,57.170883,32.350960,29.591021
44,0,-70.727470,149.314621,21.645130,-13.640033,68.689201,61.870705,-113.747406,83.307762,23.089197,29.301018,30.682880,54.849689,50.235832,5.782549,37.823898,57.200642,32.333988,29.603600
45,0,-70.726624,149.270569,21.772728,-13.627854,68.660278,61.979622,-113.744537,83.204514,23.231020,29.292698,30.628389,54.891888,50.234943,5.737997,37.825008,57.195869,32.295841,29.624937
46,0,-70.738754,149.198792,21.920103,-13.628055,68.576614,62.069958,-114.462006,87.448463,21.318457,29.378448,30.573736,54.955418,50.221943,5.744497,37.812477,57.220226,32.271572,29.636372
47,0,-70.816452,149.139130,22.011852,-13.634990,68.537315,62.173447,-114.443672,87.385727,21.375618,29.360020,30.522118,54.995205,50.209431,5.729519,37.821438,57.216492,32.260761,29.668514
48,0,-70.814056,149.043839,22.162472,-13.613016,68.459351,62.268700,-113.709511,82.964569,23.413298,29.364307,30.463650,55.078899,50.259190,5.651247,37.839108,57.207512,32.167343,29.712862
49,0,-70.810570,148.996185,22.246616,-13.630275,68.390388,62.380527,-113.689186,82.884773,23.493767,29.379919,30.398802,55.120361,50.243847,5.620019,37.845657,57.154564,32.077450,29.753326
50,0,-70.868233,148.963303,22.361807,-13.615275,68.317307,62.433941,-113.679733,82.816994,23.514990,29.392584,30.327805,55.182980,50.287113,5.590518,37.824322,57.124336,32.007565,29.785946
51,0,-70.866272,148.868149,22.481318,-13.633152,68.264809,62.539219,-113.707611,82.704033,23.570856,29.387388,30.300976,55.211914,50.225735,5.566753,37.817951,57.087860,31.957603,29.833122
52,0,-70.900208,148.876984,22.588770,-13.646422,68.198792,62.589020,-113.694748,82.618591,23.613352,29.370651,30.233486,55.263798,50.220455,5.543180,37.789871,57.010201,31.857122,29.865688
53,0,-70.912117,148.826035,22.698355,-13.654454,68.192459,62.672569,-113.693542,82.590912,23.718103,29.383894,30.187328,55.327084,50.225357,5.461345,37.757744,56.934895,31.772375,29.918642
54,0,-70.968201,148.791000,22.798033,-13.692381,68.140686,62.752342,-113.797394,82.588806,23.708464,29.318506,30.103827,55.341190,50.190231,5.428744,37.757118,56.818871,31.713173,29.982370
55,0,-71.048592,148.754013,22.897474,-13.692582,68.084717,62.857113,-113.797600,82.562164,23.812391,29.292318,30.051943,55.400490,50.126541,5.427482,37.738720,56.711742,31.705070,30.000786
56,0,-71.134071,148.764236,23.000448,-13.717251,68.054756,62.882988,-113.770187,82.421829,23.854954,29.276472,30.023344,55.405781,50.129410,5.391189,37.722637,56.692318,31.657364,30.021627
57,0,-71.199837,148.722397,23.102823,-13.810013,68.024277,62.948257,-113.878906,82.418350,23.847940,29.178398,29.958033,55.396469,50.059975,5.383759,37.693867,56.562008,31.644396,30.049349
58,0,-71.282364,148.706268,23.203304,-13.828269,67.963470,63.042641,-113.947624,82.436882,23.850668,29.122913,29.859743,55.422798,49.620617,5.423408,37.591373,56.354214,31.579964,30.059753
59,0,-71.324829,148.672577,23.398081,-13.960290,67.876343,63.161186,-113.962616,82.258682,23.926853,29.011038,29.791231,55.457333,50.510601,4.808356,37.788902,56.329056,31.509981,30.206656
60,0,-71.536865,148.696274,23.469269,-14.121316,67.809341,63.250801,-114.072952,82.274200,23.895540,28.897383,29.682743,55.476780,50.380260,4.736178,37.772942,56.156418,31.474047,30.262388
61,0,-71.594635,148.647751,23.581079,-14.195711,67.713921,63.321903,-114.150925,82.304596,23.839636,28.809732,29.592901,55.490662,50.271755,4.763570,37.721020,56.118332,31.446770,30.309742
62,0,-71.718040,148.641495,23.615145,-14.259137,67.688866,63.395718,-114.258438,82.316811,23.809959,28.725979,29.565214,55.488075,50.275059,4.718658,37.736164,55.997063,31.430338,30.361748
63,0,-71.795845,148.602371,23.666668,-14.372413,67.693398,63.401981,-113.908493,79.753067,24.717474,28.693968,29.534199,55.462093,50.030544,4.835950,37.574665,55.930058,31.474501,30.412788
64,0,-71.930496,148.582535,23.646025,-14.474436,67.680679,63.433922,-114.019844,79.760277,24.647655,28.583101,29.543764,55.433117,49.418530,5.049842,37.371693,55.658794,31.567682,30.383511
65,0,-72.022575,148.575851,23.639013,-14.560194,67.666321,63.485176,-114.197578,80.012444,24.601608,28.516008,29.504560,55.453506,49.349850,5.048931,37.386196,55.568428,31.533276,30.470146
66,0,-72.050491,148.579758,23.496630,-14.639082,67.732651,63.370659,-114.285645,80.100662,24.471008,28.474548,29.531050,55.375267,49.284184,5.115474,37.307861,55.506786,31.564106,30.429476
67,0,-72.185883,148.621094,23.316023,-14.711026,67.807571,63.291073,-114.310890,80.058586,24.391958,28.406940,29.637621,55.324440,49.192715,5.200953,37.286407,55.447918,31.633560,30.412394
68,0,-72.234497,148.701035,23.103880,-14.724967,67.916168,63.145561,-114.709251,82.279800,23.313293,28.416044,29.719347,55.235264,49.185654,5.290678,37.236000,55.415886,31.712181,30.387836
69,0,-72.274117,148.729858,22.837837,-14.683732,68.075417,62.984303,-114.706642,82.311722,23.195856,28.400728,29.881580,55.155109,49.186470,5.377798,37.217110,55.422600,31.780485,30.336626
70,0,-72.275551,148.785767,22.585144,-14.663292,68.225327,62.851719,-114.705032,82.347687,23.076017,28.460310,29.993168,55.096310,49.202515,5.478953,37.216305,55.398468,31.857237,30.337265
71,0,-72.251854,148.854889,22.262852,-14.660000,68.414490,62.669792,-115.468468,86.844757,20.853941,28.462049,30.152315,54.999973,49.214546,5.544641,37.213406,55.419952,31.937044,30.271328
72,0,-72.221901,148.930557,21.862970,-14.619349,68.628906,62.448780,-114.271332,80.081009,23.341312,28.477295,30.308979,54.919273,49.196934,5.650323,37.176731,55.412685,32.018105,30.200876
73,0,-72.208755,149.026321,21.464710,-14.604623,68.845322,62.212017,-115.532326,87.099930,20.441326,28.458149,30.505295,54.797077,49.155785,5.765504,37.116096,55.439629,32.106815,30.113300
74,0,-72.270538,149.148087,21.049601,-14.583242,69.058266,61.954048,-115.474060,87.299263,20.126036,28.466619,30.683615,54.685043,49.106461,5.903856,37.080498,55.414482,32.205582,30.049986
75,0,-72.263481,149.244843,20.581633,-14.570917,69.264000,61.720020,-114.574051,82.736275,21.869171,28.448587,30.872665,54.537663,49.102016,6.005587,37.010609,55.449089,32.312294,29.970850
76,0,-72.239326,149.392242,20.172850,-14.531297,69.478416,61.459427,-114.603127,82.836594,21.632355,28.452803,31.035748,54.439587,48.809017,6.473394,37.017204,55.518391,32.366879,29.941387
77,0,-72.222542,149.465515,19.704382,-14.513804,69.652557,61.221737,-114.599464,82.899773,21.366585,28.486752,31.188150,54.327892,49.095291,6.220092,36.987869,55.483589,32.457836,29.880098
78,0,-72.292892,149.495987,19.276884,-14.532919,69.866669,60.982525,-114.515663,82.923729,21.152573,28.451677,31.350597,54.228207,48.779663,6.671193,36.985058,55.489876,32.533295,29.846249
79,0,-72.200981,149.582947,18.930941,-14.583829,70.033791,60.731419,-115.438904,87.825470,18.774286,28.445492,31.467300,54.121452,48.737957,6.789042,36.967270,55.515430,32.579762,29.818710
80,0,-72.245155,149.718140,18.570845,-14.581032,70.163734,60.489803,-115.455200,87.977013,18.529005,28.400408,31.589243,54.007168,48.710514,6.832661,36.925396,55.489990,32.663895,29.790443
81,0,-72.215012,149.796310,18.311682,-14.600772,70.303734,60.288704,-115.410797,87.930336,18.368912,28.377878,31.728693,53.936546,48.697697,6.898590,36.934200,55.501972,32.742561,29.774323
82,0,-72.224182,149.827682,18.018661,-14.615985,70.431595,60.088776,-115.410301,88.180893,18.134096,28.367216,31.840961,53.848652,48.704597,6.983728,36.909164,55.548706,32.783569,29.745581
83,0,-72.241714,149.793503,17.635807,-14.644020,70.548874,59.878159,-115.411003,88.333382,17.832468,28.368551,31.925343,53.767471,48.717258,7.036849,36.930077,55.579376,32.838329,29.714260
84,0,-72.161507,149.810364,17.373291,-14.642947,70.627556,59.704403,-114.535385,83.367966,19.925430,28.381754,32.040588,53.688885,49.126961,6.987492,37.011494,55.757252,32.838303,29.720911
85,0,-72.212875,149.840302,17.120228,-14.652000,70.701210,59.516365,-114.446831,83.291626,19.846825,28.371359,32.133358,53.625408,49.165695,7.023131,37.009552,55.823380,32.881306,29.682159
86,0,-72.202095,149.861572,16.884441,-14.629478,70.770493,59.371975,-114.432106,83.347038,19.676899,28.427315,32.242367,53.588814,49.190079,7.045214,37.047874,55.890041,32.899727,29.676491
87,0,-72.126190,149.887024,16.691639,-14.607077,70.849518,59.241497,-114.438293,83.389038,19.546236,28.448486,32.280746,53.552387,49.182442,6.805912,36.925022,55.799549,33.012703,29.589874
88,0,-72.097267,149.898651,16.512506,-14.583565,70.927681,59.122940,-114.357079,83.358612,19.472099,28.483990,32.352474,53.506908,49.319893,7.075139,37.061283,56.032803,32.977028,29.639376
89,0,-72.070160,149.934296,16.380056,-14.537537,70.960991,59.031750,-114.365852,83.376625,19.398424,28.533440,32.403481,53.481930,49.331482,7.106183,37.087379,56.069176,33.033142,29.612415
90,0,-72.043503,149.964218,16.277308,-14.521657,71.014503,58.947865,-114.275322,83.332535,19.388348,28.521288,32.470608,53.450775,49.360310,7.124448,37.112171,56.143623,33.041283,29.641716
91,0,-71.986115,149.929932,16.204481,-14.474756,71.026764,58.909592,-114.283882,83.350159,19.315836,28.559225,32.500568,53.451595,49.412457,7.091115,37.141563,56.183559,33.074898,29.624556
92,0,-71.953011,149.953537,16.146212,-14.502415,71.052101,58.838821,-114.293961,83.407562,19.306053,28.598431,32.517284,53.416340,49.471409,7.102835,37.175209,56.247444,33.051376,29.628653
93,0,-71.955818,149.962219,16.081503,-14.496725,71.093536,58.812374,-114.174667,83.418259,19.275370,28.603405,32.555634,53.398251,49.836769,6.735065,37.191593,56.242916,33.082020,29.624979
94,0,-71.962837,149.969193,16.002031,-14.490145,71.110039,58.714954,-114.171547,83.410133,19.282949,28.598318,32.567829,53.381481,49.863209,6.730704,37.205532,56.302479,33.058117,29.631794
95,0,-71.951134,150.012863,15.934607,-14.489618,71.127487,58.697563,-114.177650,83.415497,19.229475,28.603270,32.594910,53.369747,49.868977,6.759329,37.189526,56.302299,33.103386,29.623116
96,0,-71.920494,150.009323,15.848855,-14.485835,71.131172,58.643108,-114.169548,83.438576,19.126774,28.612368,32.615570,53.354870,49.900257,6.748302,37.201931,56.359509,33.079018,29.608761
97,0,-71.919090,150.001785,15.751103,-14.473426,71.151794,58.571804,-114.210091,83.414177,19.068701,28.609093,32.638462,53.343479,49.887714,6.778591,37.184734,56.351749,33.116806,29.597225
98,0,-71.872620,150.006104,15.686754,-14.486988,71.149391,58.518398,-114.196564,83.435547,19.007465,28.625635,32.616848,53.334404,49.395641,6.920783,37.059536,56.227345,33.155479,29.566982
99,0,-71.921669,150.027710,15.606607,-14.525813,71.169189,58.450836,-114.189415,83.459137,18.903620,28.571728,32.682766,53.283260,49.878021,6.794485,37.200485,56.370480,33.108318,29.609015
100,0,-71.930374,150.031708,15.598244,-14.543099,71.153168,58.388206,-114.973175,88.028816,16.703943,28.543108,32.690834,53.275181,49.887367,6.775081,37.205379,56.364105,33.115063,29.595194
101,0,-71.932869,150.029831,15.560038,-14.564149,71.159859,58.330406,-114.177727,83.498550,18.739910,28.547464,32.661537,53.230446,49.863434,6.801869,37.212337,56.365620,33.119537,29.574297
102,0,-71.952087,150.022629,15.483257,-14.603076,71.124878,58.289066,-114.212967,83.465614,18.678431,28.490398,32.671085,53.221077,49.834614,6.820056,37.192463,56.324379,33.132641,29.575460
103,0,-71.954140,150.007187,15.505927,-14.641300,71.141472,58.230865,-114.212639,83.474693,18.664625,28.484615,32.668774,53.221287,49.846622,6.808781,37.225147,56.306465,33.130836,29.593977
104,0,-71.963043,150.037460,15.460127,-14.689340,71.173111,58.224373,-114.301811,83.595306,18.617290,28.463409,32.677856,53.203365,49.442844,7.158935,37.173023,56.291580,33.131180,29.594587
105,0,-71.986107,150.032242,15.392588,-14.682002,71.150299,58.175911,-114.304131,83.589821,18.581396,28.427521,32.723618,53.146248,49.422462,7.219878,37.147469,56.295055,33.156876,29.573471
106,0,-72.036339,150.060165,15.349722,-14.695710,71.156555,58.167633,-114.279564,83.541962,18.544382,28.426525,32.716354,53.154652,49.431477,7.194389,37.156925,56.278767,33.163307,29.567585
107,0,-71.991768,150.039185,15.289065,-14.681225,71.226730,58.129745,-114.278328,83.539444,18.539877,28.439934,32.753983,53.154297,49.442806,7.211187,37.161678,56.305019,33.174362,29.564970
108,0,-72.021141,150.054489,15.241031,-14.659686,71.240494,58.142967,-114.218948,83.381599,18.581429,28.488646,32.760014,53.186424,49.867165,6.852269,37.216999,56.324539,33.171268,29.565466
109,0,-71.985863,150.040222,15.191721,-14.639519,71.259888,58.121120,-114.224617,83.376503,18.548429,28.501390,32.811085,53.155811,49.492138,7.244797,37.164345,56.382702,33.184731,29.577847
110,0,-71.977455,150.033401,15.119590,-14.642920,71.285019,58.101662,-114.211945,83.377602,18.513805,28.516115,32.827454,53.170788,49.859062,6.882669,37.211784,56.370636,33.191978,29.559994
111,0,-71.984673,150.011703,15.072722,-14.620934,71.280777,58.104816,-114.212837,83.385635,18.500355,28.514233,32.825184,53.172333,49.496292,7.260644,37.156792,56.385334,33.181950,29.571426
112,0,-71.997574,149.999237,15.057109,-14.593566,71.333549,58.120098,-114.211021,83.381081,18.505253,28.532671,32.826672,53.185135,49.389034,7.051325,37.043919,56.268913,33.219902,29.524668
113,0,-72.016777,149.993408,15.027729,-14.605608,71.325127,58.092117,-114.132477,83.269814,18.510866,28.588665,32.836063,53.180874,49.549503,7.272448,37.180683,56.446823,33.163113,29.579563
114,0,-71.994392,149.952393,14.962353,-14.588600,71.329857,58.108215,-114.120590,83.214127,18.512224,28.564156,32.840492,53.187767,49.917591,6.899860,37.206680,56.453812,33.150467,29.619190
115,0,-72.007690,149.953583,14.960920,-14.633160,71.316673,58.088287,-114.186394,83.319138,18.440826,28.536917,32.825459,53.166153,49.917442,6.881495,37.225517,56.481651,33.140949,29.617430
116,0,-72.016792,149.953400,14.948500,-14.652911,71.310463,58.079697,-114.105080,83.233833,18.450634,28.536695,32.806118,53.194069,49.898579,6.862255,37.238316,56.463272,33.097870,29.630726
117,0,-72.040016,149.913071,14.917707,-14.658656,71.315430,58.077377,-114.186562,83.321526,18.438078,28.516788,32.814003,53.188301,49.914066,6.831436,37.248749,56.438877,33.116837,29.609497
118,0,-72.044693,149.899078,14.893579,-14.656682,71.313515,58.078438,-114.185181,83.316254,18.443817,28.514488,32.823559,53.175755,49.891724,6.843406,37.240433,56.437752,33.109058,29.619905
119,0,-72.038559,149.908020,14.910168,-14.671659,71.283775,58.048542,-114.185158,83.273514,18.394463,28.482935,32.793797,53.187057,49.465019,7.254508,37.178890,56.404942,33.114086,29.624895
120,0,-72.072418,149.901978,14.899307,-14.693069,71.304901,58.022518,-114.184189,83.271988,18.396019,28.475355,32.777512,53.154343,49.799824,6.907863,37.187027,56.372509,33.112076,29.624786
121,0,-72.074036,149.912964,14.916105,-14.698133,71.306786,58.018253,-114.170013,83.254547,18.455925,28.448111,32.799015,53.176609,49.447929,7.245789,37.188152,56.345325,33.129345,29.623415
122,0,-72.059364,149.950439,14.934986,-14.703445,71.291885,58.028324,-114.173317,83.253922,18.457615,28.455347,32.787445,53.140160,49.452751,7.247488,37.177654,56.355644,33.104286,29.636034
123,0,-72.045357,149.966965,14.950042,-14.680845,71.325554,58.016796,-114.172897,83.249214,18.462749,28.439058,32.808331,53.106201,49.839962,6.903438,37.204716,56.326492,33.137402,29.602804
124,0,-72.050507,149.988205,14.951008,-14.678031,71.338768,57.993774,-114.197426,83.298454,18.504786,28.449669,32.827293,53.109722,49.813145,6.933430,37.183018,56.323463,33.131527,29.613104
125,0,-72.027603,149.985062,14.969312,-14.669724,71.364967,57.999012,-114.202736,83.297478,18.506805,28.442104,32.864117,53.099308,49.410095,7.289982,37.144543,56.319534,33.151901,29.608162
126,0,-72.024811,150.063705,14.992114,-14.690207,71.393173,57.981682,-114.161377,83.317108,18.568796,28.461599,32.863171,53.095970,49.414436,7.330875,37.124397,56.296692,33.169712,29.602095
127,0,-71.974953,150.064804,15.059740,-14.671785,71.379547,57.990074,-114.160744,83.312836,18.579422,28.466995,32.881763,53.101322,49.427086,7.337247,37.149513,56.282619,33.167171,29.612358
128,0,-72.007622,150.076675,15.058498,-14.653892,71.410446,57.988117,-114.174110,83.285278,18.655485,28.470188,32.881119,53.077991,49.441254,7.323902,37.147758,56.284443,33.182999,29.603868
129,0,-72.009209,150.079422,15.129414,-14.674962,71.372574,58.010254,-114.169418,83.254814,18.733629,28.449697,32.863346,53.083054,49.383003,7.329534,37.142944,56.259193,33.131702,29.620150
130,0,-72.038223,150.106964,15.137603,-14.668779,71.375992,58.000725,-114.177727,83.233131,18.835520,28.437407,32.854431,53.099442,49.386749,7.321749,37.145851,56.244133,33.137794,29.629486
131,0,-72.029030,150.108719,15.153581,-14.665410,71.374039,58.005997,-114.141830,83.258842,18.846344,28.466900,32.850082,53.098057,49.392395,7.332184,37.139774,56.242081,33.139790,29.626219
132,0,-71.997734,150.101608,15.178500,-14.636982,71.392090,58.001099,-114.145081,83.252930,18.859467,28.481079,32.867226,53.095608,49.400040,7.352950,37.149139,56.256050,33.125404,29.633068
133,0,-72.038849,150.095932,15.189224,-14.604848,71.387985,57.978424,-114.149567,83.227722,18.964474,28.485826,32.866875,53.094589,49.430164,7.336700,37.156925,56.289227,33.103405,29.627398
134,0,-72.018791,150.078079,15.184229,-14.590127,71.397392,58.004326,-114.064789,83.116051,19.010019,28.515554,32.897263,53.103485,49.429958,7.344841,37.139912,56.277668,33.106026,29.624016
135,0,-72.003090,150.072220,15.204228,-14.558735,71.413124,58.010284,-114.063683,83.104553,19.028900,28.556728,32.909927,53.098587,49.461479,7.355501,37.153244,56.305649,33.113823,29.637106
136,0,-72.020508,150.069427,15.239500,-14.505221,71.417358,58.002213,-114.025833,83.120811,19.100983,28.567041,32.956978,53.083046,49.903816,6.939356,37.189381,56.355591,33.106464,29.607241
137,0,-71.964493,150.055847,15.220655,-14.482437,71.433861,58.011906,-114.034012,83.095779,19.205997,28.647089,32.961246,53.120239,49.959034,6.942889,37.217369,56.352058,33.105095,29.585831
138,0,-71.963699,150.056808,15.246151,-14.434021,71.480530,58.009663,-113.950256,82.978409,19.262203,28.676634,32.987087,53.113228,49.949505,6.987892,37.169823,56.417419,33.106373,29.591913
139,0,-71.958069,150.095612,15.252952,-14.412595,71.500114,58.021858,-113.921288,82.986519,19.370607,28.683855,33.008694,53.103317,49.986759,7.006367,37.177654,56.440830,33.112881,29.571686
140,0,-71.931366,150.066177,15.265817,-14.348390,71.516975,58.023476,-113.920006,82.961937,19.403759,28.752287,33.032982,53.089882,50.017223,6.999338,37.160805,56.459431,33.127125,29.579453
141,0,-71.879784,150.060120,15.263907,-14.320347,71.522194,58.008911,-113.927307,83.015007,19.447462,28.788765,33.058121,53.106380,50.057064,7.008050,37.197021,56.505344,33.090584,29.586332
142,0,-71.872520,150.076996,15.293384,-14.269266,71.555618,58.008854,-113.917793,83.042267,19.485847,28.796743,33.053291,53.103878,50.120655,6.972628,37.204025,56.587456,33.069546,29.584549
143,0,-71.830780,150.119141,15.283903,-14.245627,71.558487,57.987675,-113.849396,82.996887,19.516666,28.849319,33.049622,53.099083,50.144329,6.958968,37.199844,56.630550,33.072159,29.600500
144,0,-71.765450,150.113739,15.279233,-14.195328,71.543343,57.965092,-113.817627,83.026512,19.565926,28.878519,33.087311,53.107979,50.205406,6.983237,37.195686,56.644524,33.080502,29.588348
145,0,-71.729370,150.123138,15.258590,-14.147447,71.603630,57.941704,-113.741104,82.983490,19.588644,28.915031,33.102161,53.096992,50.180897,6.989715,37.193970,56.738522,33.044540,29.593506
146,0,-71.686661,150.164108,15.226386,-14.104140,71.631546,57.922836,-113.753098,83.039749,19.587599,28.945034,33.143917,53.097679,50.183079,7.027212,37.169319,56.742855,33.066532,29.565142
147,0,-71.631668,150.203583,15.263068,-14.062785,71.665695,57.922680,-113.649818,83.022781,19.621181,28.974472,33.141312,53.101181,50.242912,6.988753,37.218422,56.787285,33.059143,29.577358
148,0,-71.624100,150.250397,15.264809,-14.061769,71.694611,57.940460,-113.664330,83.078308,19.620750,29.003088,33.174507,53.083160,50.264591,6.982607,37.224400,56.826077,33.053856,29.589626
149,0,-71.581078,150.253265,15.280915,-14.020356,71.710976,57.914497,-113.630028,83.109131,19.668547,29.002527,33.179089,53.078865,50.264095,7.025015,37.202145,56.838383,33.050610,29.581224
150,0,-71.512062,150.294296,15.332087,-13.960319,71.726997,57.920872,-113.641907,83.165535,19.667629,29.011225,33.196053,53.081650,50.298321,7.010214,37.213264,56.820377,33.076977,29.570900
151,0,-71.489120,150.341278,15.372315,-13.959622,71.728973,57.921223,-113.620247,83.262085,19.699062,29.010765,33.176624,53.080704,50.283203,6.976285,37.227425,56.819508,33.060467,29.578245
152,0,-71.497711,150.369934,15.401708,-13.937749,71.706299,57.951721,-113.640434,83.323463,19.719730,28.982883,33.181141,53.083908,50.251114,6.996471,37.213974,56.849648,33.058411,29.590433
153,0,-71.452339,150.404861,15.443298,-13.953350,71.739273,57.940071,-113.651131,83.385689,19.706245,29.004406,33.179935,53.084465,50.271389,7.000595,37.205738,56.835442,33.059555,29.586445
154,0,-71.398018,150.400864,15.439459,-13.909710,71.727928,57.927029,-113.651062,83.377533,19.720522,29.004824,33.191509,53.084354,50.260567,6.978402,37.223518,56.834240,33.052032,29.588787
155,0,-71.389557,150.460922,15.445807,-13.926706,71.750595,57.900478,-113.619324,83.459885,19.763464,29.003502,33.183571,53.058468,50.246410,7.000149,37.193329,56.826492,33.048054,29.587677
156,0,-71.379753,150.455429,15.428068,-13.914607,71.779388,57.908897,-113.619324,83.459816,19.763529,28.996717,33.197422,53.063656,50.247669,7.021120,37.180771,56.827301,33.070461,29.578218
157,0,-71.333466,150.493057,15.422644,-13.912119,71.759613,57.904373,-113.634277,83.536995,19.734043,28.999107,33.186199,53.078796,50.256905,7.007063,37.198143,56.861958,33.031792,29.595173
158,0,-71.303307,150.485489,15.363201,-13.887619,71.805061,57.881069,-113.552048,83.428551,19.732454,29.022053,33.216759,53.063313,50.254940,6.990423,37.212082,56.862377,33.039040,29.588287
159,0,-71.311996,150.487579,15.342482,-13.887561,71.802765,57.867210,-113.528259,83.462860,19.660450,29.043043,33.229279,53.087784,50.231583,7.029916,37.199856,56.883472,33.040752,29.571367
160,0,-71.266182,150.452225,15.308637,-13.887859,71.831833,57.840511,-113.544060,83.542931,19.621504,29.029884,33.234795,53.065559,50.291664,6.984877,37.219185,56.912510,33.020042,29.610531
161,0,-71.261238,150.470901,15.202368,-13.886232,71.829803,57.834324,-113.573929,83.526649,19.589722,29.047674,33.189045,53.076019,50.289719,6.972816,37.228619,56.910370,33.006969,29.607210
162,0,-71.252602,150.455933,15.162098,-13.906234,71.827141,57.809391,-113.555191,83.546761,19.535343,29.033430,33.233089,53.062389,50.298710,6.982803,37.244835,56.927982,32.983223,29.606354
163,0,-71.238441,150.432693,15.066066,-13.934762,71.807770,57.786606,-113.564735,83.569748,19.459455,29.056778,33.227840,53.080177,50.307125,6.960835,37.248833,56.934887,32.969776,29.621992
164,0,-71.280090,150.404877,14.948604,-13.927864,71.832825,57.749004,-113.459930,83.423279,19.403038,29.023567,33.224152,53.042286,50.297817,7.004149,37.232944,56.924198,32.967827,29.633787
165,0,-71.233421,150.357346,14.867377,-13.954848,71.837456,57.711506,-113.486435,83.403549,19.382793,29.018776,33.224369,53.040344,50.292641,7.009027,37.224815,56.925865,32.969433,29.622244
166,0,-71.250778,150.334808,14.784944,-13.962602,71.835258,57.680401,-113.473122,83.356598,19.301035,28.976870,33.278763,53.032227,50.290188,7.003835,37.226357,56.916416,32.968185,29.628601
167,0,-71.283112,150.324936,14.697604,-14.013655,71.866547,57.652248,-113.568352,83.480385,19.194031,28.975655,33.276199,53.021984,50.323074,6.988088,37.240417,56.940018,32.941257,29.622581
168,0,-71.293747,150.302429,14.649053,-14.028837,71.865341,57.612022,-113.574295,83.402000,19.153601,28.963598,33.262337,52.991802,50.275269,7.029284,37.224606,56.908630,32.943066,29.628620
169,0,-71.352028,150.298126,14.581800,-14.032208,71.843040,57.598774,-113.572502,83.414581,19.133467,28.946072,33.249805,52.986908,50.252453,7.010887,37.221573,56.867439,32.948505,29.641176
170,0,-71.403534,150.282013,14.530217,-14.079228,71.853851,57.557987,-113.593506,83.321785,19.100611,28.917500,33.276165,52.969769,50.225754,7.008099,37.210403,56.842995,32.977283,29.639700
171,0,-71.386208,150.277710,14.506630,-14.137586,71.818451,57.559196,-113.662323,83.375092,19.035326,28.887516,33.258537,52.976177,50.243996,7.006382,37.237064,56.833603,32.975643,29.625933
172,0,-71.461975,150.216782,14.473709,-14.137989,71.820686,57.540073,-113.672653,83.284004,19.041088,28.860023,33.258633,52.947304,50.224560,7.028162,37.206482,56.813168,32.957806,29.638222
173,0,-71.471802,150.192734,14.437332,-14.178295,71.805496,57.526978,-113.778854,83.401871,18.970726,28.866301,33.244598,52.968174,50.236221,7.005445,37.222126,56.773296,32.972805,29.640491
174,0,-71.509476,150.190552,14.402292,-14.202326,71.773331,57.523956,-113.782028,83.312508,18.945627,28.862501,33.240631,52.966450,50.248924,6.988628,37.263306,56.783760,32.968945,29.663059
175,0,-71.519012,150.178604,14.397670,-14.220207,71.790215,57.544239,-113.783775,83.314453,18.943150,28.843838,33.247311,52.964710,50.230942,7.001478,37.248573,56.770298,32.976395,29.641472
176,0,-71.487526,150.178146,14.403631,-14.201531,71.784012,57.519150,-113.770233,83.240738,18.969843,28.842117,33.242966,52.966805,50.216702,6.999063,37.209229,56.761265,32.983517,29.624769
177,0,-71.495537,150.146164,14.375987,-14.186663,71.746849,57.563782,-113.769371,83.241615,18.968790,28.852098,33.230785,52.966484,50.231522,6.981102,37.230820,56.788704,32.953548,29.635996
178,0,-71.470680,150.135605,14.426211,-14.176671,71.754059,57.560028,-113.754471,83.341614,18.953144,28.859812,33.228470,52.972126,50.239109,6.986369,37.226448,56.796818,32.969109,29.647158
179,0,-71.478279,150.126892,14.426839,-14.159684,71.779015,57.563801,-113.758247,83.329338,18.972202,28.901762,33.238682,52.984447,50.224686,6.991148,37.230782,56.804821,32.969528,29.650978
180,0,-71.450768,150.183487,14.491716,-14.149017,71.791771,57.580956,-113.774216,83.389702,19.031914,28.918976,33.236870,52.978622,50.228222,7.004063,37.236504,56.830757,32.971687,29.639967
181,0,-71.428741,150.202850,14.538580,-14.139133,71.799858,57.621735,-113.685089,83.267227,19.093241,28.924889,33.279190,52.988094,50.220688,7.022692,37.219540,56.833382,32.977428,29.633121
182,0,-71.403900,150.210312,14.625468,-14.092253,71.824165,57.671108,-113.678078,83.334656,19.190180,28.940224,33.277794,53.029381,50.243771,7.032373,37.235554,56.864010,32.997585,29.648760
183,0,-71.401566,150.287582,14.725839,-14.071992,71.835014,57.702789,-113.685989,83.383446,19.242800,28.951595,33.299179,53.021744,50.314899,7.014816,37.259247,56.862595,33.004013,29.640619
184,0,-71.354965,150.304153,14.791106,-14.047105,71.828735,57.733044,-113.675163,83.444763,19.350458,28.992634,33.295734,53.052971,50.302193,7.030183,37.237957,56.868507,33.018692,29.628241
185,0,-71.316170,150.321869,14.870759,-13.967274,71.789536,57.771126,-113.682228,83.511848,19.376778,28.964144,33.233971,53.046215,50.267181,7.031334,37.257427,56.873581,33.020370,29.630192
186,0,-71.292351,150.390594,14.964466,-14.007424,71.808327,57.816929,-113.675980,83.576462,19.437113,28.969122,33.234608,53.066196,50.247700,7.020800,37.271988,56.849072,33.030064,29.654175
187,0,-71.280067,150.467926,15.076523,-14.010447,71.818192,57.839840,-113.679550,83.645737,19.460239,28.962143,33.210804,53.072517,50.203472,7.039552,37.241085,56.826012,33.061554,29.640413
188,0,-71.246223,150.525955,15.144034,-14.023746,71.819954,57.876495,-113.652611,83.665939,19.480282,28.954771,33.223846,53.060379,50.173626,7.053469,37.224583,56.828697,33.060272,29.646046
189,0,-71.198914,150.555939,15.234950,-13.979012,71.834694,57.887074,-113.656517,83.728477,19.539167,28.937540,33.213287,53.097694,50.196827,7.026580,37.244019,56.854782,33.030621,29.664768
190,0,-71.169853,150.611954,15.284345,-13.956534,71.797493,57.932697,-113.564583,83.672447,19.586113,28.965546,33.192356,53.105225,50.234245,7.000221,37.285000,56.838840,33.011909,29.670940
191,0,-71.136024,150.648499,15.312138,-13.940834,71.856606,57.959873,-113.571091,83.742615,19.604609,28.968552,33.225159,53.134796,50.223301,6.990843,37.266850,56.879677,33.005074,29.674625
192,0,-71.089981,150.692474,15.318329,-13.904175,71.836823,57.949814,-113.553055,83.759071,19.625610,29.021498,33.216667,53.141518,50.276165,6.971835,37.264404,56.898964,32.991215,29.666924
193,0,-71.079109,150.683304,15.330210,-13.861062,71.829376,57.947845,-113.563492,83.826599,19.607716,29.031534,33.219646,53.141399,50.276550,6.952596,37.282005,56.919891,32.978615,29.676065
194,0,-71.025085,150.674088,15.360772,-13.855236,71.816063,57.951855,-113.580742,83.890472,19.791487,29.059525,33.190701,53.155811,50.298565,6.919529,37.304405,56.929451,32.949593,29.677683
195,0,-71.010529,150.699219,15.394765,-13.823280,71.830681,57.979870,-113.566612,84.008934,19.579523,29.040951,33.194588,53.154705,50.290981,6.936249,37.288494,56.961372,32.950005,29.689398
196,0,-71.003990,150.672180,15.391291,-13.811762,71.819107,57.993862,-113.578987,84.073448,19.560776,29.036282,33.193367,53.156578,50.303143,6.930458,37.293324,56.944561,32.976376,29.679071
197,0,-71.018974,150.652573,15.426164,-13.814696,71.796989,57.997414,-113.575050,83.881439,19.852413,29.043308,33.184441,53.166309,50.292694,6.931063,37.311008,56.938545,32.948055,29.675787
198,0,-71.009575,150.655090,15.439168,-13.814528,71.801788,58.021954,-113.566490,83.999184,19.594488,29.040401,33.161556,53.171883,49.968731,7.262434,37.304718,56.958282,32.966312,29.682686
199,0,-71.015984,150.663376,15.447825,-13.826635,71.815002,58.016991,-113.572197,83.896843,19.838989,29.041491,33.180805,53.171959,50.299160,6.916950,37.310375,56.956821,32.944244,29.688662
200,0,-71.031822,150.674194,15.477591,-13.814415,71.814812,58.057945,-113.565453,83.997955,19.595778,29.040085,33.175396,53.181881,50.286339,6.935776,37.318821,56.955811,32.966537,29.702435
201,0,-71.044029,150.668121,15.442129,-13.821136,71.805702,58.050476,-113.557846,83.983871,19.660717,29.043955,33.179829,53.170868,50.311749,6.918733,37.343693,56.957272,32.967976,29.698286
202,0,-71.018585,150.666092,15.431730,-13.828697,71.813492,58.016289,-113.488029,83.453957,19.882269,29.087959,33.170605,53.177959,49.966503,7.256492,37.335529,56.971394,32.967453,29.699566
203,0,-71.033081,150.611969,15.370740,-13.807869,71.791550,58.036045,-113.566490,83.999184,19.594488,29.040668,33.182606,53.174900,49.942413,7.264969,37.302513,56.986473,32.955868,29.711895
204,0,-71.026741,150.597092,15.340427,-13.817733,71.791290,58.004936,-113.570084,83.955162,19.704811,29.041965,33.182594,53.167709,50.289658,6.920525,37.339443,56.982059,32.957012,29.695349
205,0,-71.040199,150.644348,15.258339,-13.820390,71.809807,57.953823,-113.496307,83.754028,19.753508,29.042315,33.187046,53.164005,50.317970,6.905571,37.345806,56.973305,32.962162,29.689510
206,0,-71.018394,150.578674,15.185093,-13.846936,71.822128,57.931355,-113.488861,83.833138,19.465870,29.033724,33.164288,53.166595,50.279411,6.929777,37.332771,56.962345,32.946102,29.686903
207,0,-71.033073,150.585739,15.114116,-13.864497,71.797928,57.895691,-113.506767,83.903458,19.434301,29.042257,33.196323,53.142525,50.289177,6.919346,37.307232,56.959332,32.945637,29.690630
208,0,-71.062088,150.523911,15.038989,-13.859174,71.792511,57.878296,-113.501198,83.935440,19.324511,29.010368,33.198982,53.122414,50.251770,6.965052,37.272213,56.935780,32.963146,29.665228
209,0,-71.071350,150.520111,14.991577,-13.908972,71.831863,57.847111,-113.601814,84.062393,19.268757,29.009638,33.197613,53.099812,50.278965,6.954206,37.291035,56.943806,32.947781,29.674347
210,0,-71.079109,150.500778,14.943892,-13.907038,71.841331,57.819603,-113.487083,83.868057,19.341160,29.018999,33.188473,53.075279,50.279167,6.946800,37.299114,56.950550,32.948170,29.688292
211,0,-71.092468,150.506393,14.915896,-13.911901,71.809540,57.804783,-113.481270,83.884262,19.246769,28.965727,33.182278,53.080791,50.243637,6.961718,37.284924,56.924713,32.974125,29.677223
212,0,-71.067902,150.503372,14.850430,-13.931047,71.814842,57.780018,-113.608734,83.958580,19.199951,28.953981,33.186718,53.070705,50.228996,6.969188,37.271557,56.893257,32.991859,29.669954
213,0,-71.108711,150.523438,14.816904,-13.946149,71.828850,57.736263,-113.603783,83.955246,19.199114,28.946331,33.185642,53.069321,50.203869,6.958844,37.259983,56.889904,32.995560,29.667614
214,0,-71.100800,150.554565,14.775496,-13.974606,71.847755,57.721714,-113.612442,83.956436,19.152328,28.907412,33.229515,53.053123,50.181610,6.981850,37.255013,56.893566,32.984035,29.676838
215,0,-71.130524,150.556915,14.711473,-14.000255,71.861732,57.712173,-113.610291,83.957832,19.146332,28.904142,33.226311,53.055244,50.139107,7.008393,37.226662,56.864155,32.996937,29.659525
216,0,-71.147743,150.537735,14.677335,-14.001182,71.847870,57.689663,-113.598869,83.956734,19.120161,28.935312,33.211758,53.049114,50.201336,6.986805,37.269878,56.881405,32.977509,29.672667
217,0,-71.135078,150.563202,14.654673,-13.988554,71.845520,57.675106,-113.606613,83.962982,19.064056,28.928886,33.210548,53.055386,50.202709,6.995301,37.264118,56.878262,32.987854,29.662647
218,0,-71.152901,150.545792,14.604774,-13.995440,71.851761,57.658791,-113.606300,83.954697,19.073555,28.906065,33.251953,53.041710,50.210461,6.977398,37.277374,56.899109,32.983562,29.667234
219,0,-71.109741,150.539719,14.611567,-13.991376,71.854599,57.635937,-113.605728,83.955238,19.067568,28.899683,33.248371,53.006142,50.195984,6.999931,37.251705,56.902016,32.986847,29.668964
220,0,-71.098503,150.546707,14.592991,-14.004299,71.864014,57.639915,-113.605896,83.961006,19.060911,28.901339,33.245144,53.008587,50.184177,7.002151,37.249264,56.874596,32.986691,29.660540
221,0,-71.115265,150.566910,14.565052,-14.006847,71.853004,57.633362,-113.517189,83.851891,19.101748,28.913355,33.214676,52.989403,50.165173,7.025836,37.222908,56.872559,32.989067,29.662832
222,0,-71.105515,150.573425,14.521837,-14.024117,71.837563,57.618679,-113.619743,84.040825,19.022213,28.896034,33.258965,52.990929,50.160244,7.019911,37.228573,56.850826,33.002983,29.657045
223,0,-71.066330,150.561752,14.508382,-14.064341,71.872864,57.616623,-113.523819,83.938454,19.056837,28.899204,33.248302,53.003307,50.138321,7.034452,37.227654,56.859276,32.987652,29.670675
224,0,-71.085732,150.587906,14.491284,-14.058558,71.869690,57.613358,-113.617592,84.057671,19.003990,28.865150,33.264709,52.971687,50.121864,7.014586,37.233509,56.850433,32.985744,29.670490
225,0,-71.096077,150.582474,14.474764,-14.079947,71.893967,57.582531,-113.611671,84.074608,18.951210,28.846048,33.260021,52.947414,50.124313,7.042681,37.228710,56.828102,32.999046,29.646429
226,0,-71.071846,150.609604,14.461411,-14.085001,71.893219,57.580570,-113.612679,84.086754,18.938469,28.862621,33.264275,52.942123,50.140797,7.020742,37.238255,56.835049,33.005871,29.653065
227,0,-71.093124,150.634995,14.385483,-14.082111,71.919838,57.570415,-113.622932,84.154587,18.918550,28.861301,33.291733,52.950802,50.165348,7.046319,37.240314,56.844753,33.013474,29.648918
228,0,-71.060440,150.651428,14.334327,-14.070215,71.935066,57.556660,-113.623833,84.166084,18.900537,28.862513,33.334312,52.939205,50.158157,7.052086,37.239597,56.831097,33.035484,29.658216
229,0,-71.021446,150.625778,14.286604,-14.096681,71.966797,57.512852,-113.643196,84.237282,18.832293,28.882999,33.326118,52.936199,50.182941,7.063806,37.252316,56.828930,33.048401,29.652067
230,0,-71.060379,150.688522,14.231363,-14.081885,71.972084,57.478600,-113.631050,84.255653,18.779886,28.843294,33.330769,52.900867,50.128517,7.102111,37.196396,56.807579,33.040939,29.638157
231,0,-71.025856,150.683701,14.142310,-14.098663,71.983543,57.457211,-113.304192,82.499443,18.894485,28.816107,33.339031,52.872963,50.088650,7.069188,37.206898,56.803871,33.038074,29.645262
232,0,-70.972725,150.678680,14.115025,-14.113085,71.972267,57.440186,-113.661705,84.317902,18.589479,28.784473,33.321823,52.883942,50.107567,7.041704,37.235504,56.780613,33.027603,29.655369
233,0,-70.973335,150.674362,14.094761,-14.134961,71.971771,57.444954,-113.641724,84.055138,18.881868,28.764063,33.326851,52.891365,50.044239,7.034251,37.237259,56.784897,33.025921,29.658215
234,0,-71.031197,150.667801,14.026282,-14.179407,71.974785,57.386539,-113.738518,84.384712,18.547649,28.736635,33.281742,52.886162,49.965385,7.063346,37.211246,56.761974,33.040024,29.644966
235,0,-70.990318,150.701553,13.997255,-14.202634,71.982147,57.389008,-113.646889,84.053589,18.833456,28.697815,33.286964,52.915581,49.955627,7.029702,37.225578,56.747147,33.045040,29.643768
236,0,-70.978958,150.678802,13.928234,-14.188566,71.998917,57.404228,-113.636192,84.093132,18.769577,28.740158,33.278965,52.915489,49.969437,7.012757,37.252544,56.750977,33.050373,29.634438
237,0,-70.916435,150.676086,13.894938,-14.180089,72.011215,57.389191,-113.638351,84.090469,18.770283,28.709362,33.288181,52.898327,49.959103,7.003860,37.244255,56.793858,33.018318,29.640385
238,0,-70.855438,150.702026,13.821353,-14.135593,72.040565,57.358738,-113.871422,85.764511,17.743811,28.783354,33.297565,52.916710,49.992325,6.992355,37.246716,56.833519,33.038879,29.645420
239,0,-70.800430,150.725159,13.807708,-14.121334,72.051399,57.371536,-113.511642,84.026527,18.814831,28.779545,33.313625,52.912251,50.017410,7.012406,37.250019,56.843060,33.040909,29.645836
240,0,-70.715401,150.712769,13.718621,-14.104267,72.038437,57.346111,-113.503532,84.050949,18.764368,28.790495,33.300503,52.908173,50.012077,7.007588,37.241928,56.894100,33.013603,29.641123
241,0,-70.658127,150.717667,13.663302,-14.057956,72.085037,57.316341,-114.315903,89.114685,16.271347,28.823658,33.325329,52.896023,50.074936,6.959672,37.258801,56.935394,32.981937,29.657368
242,0,-70.543388,150.725433,13.582925,-14.022339,72.097824,57.301346,-114.220879,89.216629,16.178513,28.843744,33.304913,52.888893,50.121040,6.958059,37.275124,56.985718,32.994637,29.655569
243,0,-70.481117,150.758377,13.553107,-14.012020,72.107613,57.273468,-114.225975,89.297134,16.098442,28.861576,33.304020,52.888294,50.187042,6.910450,37.266571,57.034798,32.948380,29.662958
244,0,-70.414207,150.776917,13.494866,-14.014676,72.120575,57.238995,-113.355225,84.127235,18.606743,28.884235,33.299072,52.892441,50.179024,6.910812,37.270863,57.040947,32.951900,29.665403
245,0,-70.394440,150.806656,13.457113,-13.994850,72.120064,57.236401,-114.167702,89.422554,15.937428,28.908234,33.343967,52.887405,50.188019,6.946120,37.254734,57.068001,32.928066,29.671085
246,0,-70.346924,150.807663,13.402077,-13.994851,72.116623,57.222210,-113.354797,84.716881,18.103809,28.919579,33.348461,52.879791,50.206509,6.935888,37.271324,57.123032,32.917728,29.679670
247,0,-70.309906,150.825760,13.384012,-13.987637,72.132912,57.217793,-113.352699,84.727837,18.087986,28.918924,33.348259,52.878567,50.172718,6.956367,37.225487,57.127529,32.918961,29.666147
248,0,-70.265762,150.825699,13.375322,-13.971416,72.154388,57.201088,-113.364784,84.792511,18.068420,28.928242,33.375233,52.870426,50.164253,6.975589,37.201389,57.142887,32.925003,29.671095
249,0,-70.263428,150.830536,13.346591,-13.992388,72.159615,57.194958,-113.358910,84.814034,18.012600,28.933075,33.381542,52.851608,50.138130,6.994086,37.178761,57.149490,32.931244,29.673618
250,0,-70.260185,150.808334,13.301390,-13.997356,72.161049,57.186172,-113.337738,84.915398,18.000479,28.914656,33.379433,52.869705,50.149281,7.025392,37.194061,57.133041,32.935604,29.669977
251,0,-70.272949,150.826035,13.261658,-13.992843,72.160667,57.163719,-113.360764,84.805519,17.969248,28.931110,33.367424,52.883408,50.189262,6.986903,37.211926,57.142136,32.911709,29.675285
252,0,-70.260574,150.808807,13.239762,-13.973738,72.133522,57.146915,-113.357704,84.800819,17.966686,28.939268,33.367825,52.869968,50.205872,6.979025,37.225964,57.126041,32.909946,29.667585
253,0,-70.268806,150.812302,13.199132,-14.002110,72.128693,57.124863,-113.371162,84.699203,17.906384,28.933863,33.376583,52.856869,50.220562,6.977726,37.227577,57.151733,32.896622,29.691442
254,0,-70.285286,150.781372,13.136618,-14.033287,72.117928,57.118668,-113.369225,84.704300,17.895035,28.918848,33.368599,52.872948,50.219288,6.980066,37.242802,57.111179,32.874184,29.695948
255,0,-70.320847,150.753708,13.091619,-14.048690,72.094131,57.115299,-113.398392,84.612679,17.852425,28.912237,33.368351,52.868767,50.204979,6.974266,37.232479,57.092751,32.876896,29.697657
256,0,-70.317162,150.707275,13.074946,-14.088385,72.089912,57.096725,-113.478271,84.657333,17.830454,28.910288,33.366379,52.872284,50.209335,6.953909,37.253841,57.116325,32.846619,29.703981
257,0,-70.367439,150.660065,13.035810,-14.127599,72.075050,57.109955,-113.489944,84.551849,17.779491,28.902544,33.366585,52.868202,50.192802,6.972956,37.238522,57.094795,32.841797,29.707392
258,0,-70.406517,150.607407,13.005233,-14.138124,72.052330,57.063583,-113.475060,84.481842,17.801191,28.866367,33.339329,52.840660,50.199707,6.985311,37.230801,57.075569,32.834538,29.697987
259,0,-70.448280,150.589752,12.960529,-14.164896,72.040565,57.041599,-113.551010,84.513245,17.790260,28.876539,33.370171,52.827805,50.173412,6.997802,37.214733,57.063900,32.832104,29.698204
260,0,-70.455246,150.574860,12.960005,-14.192439,72.022240,57.043503,-113.543961,84.505089,17.797337,28.854624,33.344082,52.808399,50.213066,6.972974,37.227932,57.044937,32.844620,29.698664
261,0,-70.480927,150.537949,12.914467,-14.202573,72.005203,57.031551,-113.526611,84.442650,17.801968,28.840740,33.347633,52.832363,50.229832,6.991408,37.242573,57.095890,32.806786,29.714165
262,0,-70.450424,150.526932,12.921679,-14.209462,71.968132,57.027149,-113.566612,84.426437,17.742519,28.854773,33.357361,52.836662,50.256413,6.949391,37.299118,57.086895,32.815418,29.728893
263,0,-70.470764,150.529785,12.899181,-14.220452,71.970985,57.032848,-113.569206,84.427788,17.741501,28.840397,33.353363,52.842709,50.231674,6.971467,37.272243,57.059879,32.822140,29.720314
264,0,-70.465950,150.523422,12.841127,-14.216766,72.003662,57.018009,-113.568283,84.426476,17.742859,28.844883,33.373093,52.814350,50.215900,6.975960,37.228867,57.076134,32.830822,29.723175
265,0,-70.387772,150.532272,12.833071,-14.227397,72.043198,56.987206,-113.582909,84.505249,17.706392,28.899906,33.367077,52.841766,50.237667,6.984888,37.263103,57.085022,32.812473,29.715193
266,0,-70.366798,150.586197,12.803961,-14.223298,72.031906,57.001617,-113.584663,84.586159,17.641678,28.893944,33.421642,52.814445,50.238533,7.011780,37.236450,57.098465,32.815830,29.707535
267,0,-70.363541,150.582550,12.723611,-14.204273,72.070007,56.940662,-113.469589,84.519547,17.670504,28.889061,33.415710,52.818062,50.218750,6.983483,37.232414,57.112247,32.813473,29.703402
268,0,-70.314491,150.636581,12.733376,-14.179721,72.081917,56.943317,-113.490181,84.581238,17.613356,28.866314,33.406792,52.801739,50.249268,7.012597,37.219368,57.109276,32.812569,29.717169
269,0,-70.259392,150.656143,12.744196,-14.173107,72.097763,56.916759,-113.481300,84.587563,17.577002,28.861612,33.402889,52.778725,50.217525,7.012692,37.211758,57.090916,32.819294,29.707298
270,0,-70.232483,150.685852,12.751684,-14.163235,72.102974,56.912640,-113.461906,84.684196,17.561991,28.886202,33.431679,52.770905,50.196869,7.053052,37.195850,57.086697,32.826679,29.709671
271,0,-70.177528,150.733749,12.794889,-14.150720,72.135567,56.922264,-113.469521,84.746391,17.591290,28.893230,33.434620,52.761398,50.239941,7.027540,37.224468,57.078640,32.825077,29.727539
272,0,-70.192223,150.799759,12.881809,-14.151633,72.125465,56.938816,-113.481880,84.744217,17.629534,28.890978,33.420105,52.785358,50.216583,7.024433,37.238750,57.088539,32.818356,29.734158
273,0,-70.167091,150.794769,12.919226,-14.168880,72.164764,56.934788,-113.457855,84.826050,17.680334,28.866753,33.460957,52.783878,50.115623,7.115489,37.125954,57.042126,32.844410,29.717798
274,0,-70.140961,150.816772,12.967420,-14.139619,72.147926,56.970829,-113.390533,84.767700,17.758284,28.889675,33.444477,52.801624,50.206383,7.070741,37.211258,57.072601,32.844391,29.726271
275,0,-70.102081,150.825821,12.993964,-14.102624,72.157532,57.013084,-113.373314,84.754402,17.811928,28.913950,33.431419,52.806335,50.207165,7.071383,37.223900,57.101154,32.831638,29.730331
276,0,-70.111992,150.881317,13.018271,-14.096456,72.174065,57.013126,-113.406784,84.815079,17.839172,28.911795,33.462826,52.829830,50.240280,7.051954,37.246529,57.101833,32.861988,29.738848
277,0,-70.089165,150.876297,13.001983,-14.061093,72.195267,57.024563,-113.374977,84.851143,17.829805,28.933672,33.472950,52.825058,50.251602,7.093137,37.230438,57.143623,32.846722,29.722031
278,0,-70.029671,150.896362,12.975259,-14.064116,72.215141,56.990917,-113.376213,84.926132,17.773458,28.942154,33.497562,52.818787,50.265511,7.095323,37.219025,57.140118,32.853683,29.735111
279,0,-70.038315,150.918961,12.925649,-14.056611,72.223419,56.979362,-113.384743,84.938522,17.713045,28.949228,33.511818,52.783207,50.237988,7.109739,37.188309,57.137619,32.860260,29.721680
280,0,-70.071991,150.946625,12.871045,-14.060202,72.241959,56.956242,-113.379936,84.962067,17.651777,28.938951,33.508644,52.784863,50.244091,7.094361,37.214672,57.114319,32.872425,29.720999
281,0,-70.035553,150.934601,12.882041,-14.056453,72.232697,56.940632,-113.375610,84.975334,17.629894,28.949930,33.510353,52.808762,50.271740,7.079231,37.264462,57.128307,32.855656,29.725269
282,0,-70.035080,150.924469,12.831580,-14.073937,72.246674,56.904900,-113.371689,84.910202,17.604710,28.927742,33.494179,52.779537,50.257008,7.085104,37.273350,57.153015,32.844486,29.758081
283,0,-70.077026,150.918015,12.788095,-14.106918,72.235626,56.885349,-113.367928,84.919128,17.524084,28.913954,33.490955,52.778488,50.267113,7.081082,37.238491,57.115814,32.871902,29.742441
284,0,-70.089111,150.899307,12.781488,-14.126412,72.239281,56.883675,-113.378471,84.819550,17.581924,28.910168,33.507961,52.758755,50.247791,7.118939,37.242115,57.071888,32.884541,29.725855
285,0,-70.122368,150.885727,12.720973,-14.130885,72.252365,56.866558,-113.377159,84.824608,17.569666,28.922327,33.568890,52.787231,50.240734,7.125388,37.244801,57.097294,32.873165,29.748837
286,0,-70.137962,150.858292,12.708978,-14.123443,72.256577,56.865852,-113.381523,84.830971,17.521133,28.917011,33.579060,52.732582,50.125175,7.219809,37.135994,57.033108,32.921680,29.714886
287,0,-70.220825,150.857208,12.683755,-14.117811,72.283691,56.874947,-113.382225,84.828156,17.524464,28.916422,33.586628,52.750572,50.267273,7.161170,37.203770,57.076355,32.899975,29.720917
288,0,-70.229675,150.803986,12.613243,-14.114517,72.290337,56.864254,-113.372269,84.759361,17.544428,28.934702,33.605175,52.723484,50.299850,7.159674,37.218929,57.068985,32.911964,29.714920
289,0,-70.188919,150.755356,12.621298,-14.098479,72.299217,56.850193,-113.357758,84.679253,17.576057,28.971148,33.616951,52.719261,50.260639,7.207961,37.179924,57.089626,32.901707,29.698904
290,0,-70.253098,150.736099,12.524076,-14.102218,72.304520,56.832382,-113.385254,84.659637,17.555664,29.003096,33.645508,52.737148,50.309570,7.224545,37.191315,57.106457,32.895138,29.697176
291,0,-70.286140,150.713257,12.479624,-14.099761,72.292152,56.840614,-113.470947,84.702377,17.488228,29.006092,33.632393,52.721764,50.323608,7.199049,37.221035,57.110962,32.893040,29.693991
292,0,-70.247330,150.627747,12.422273,-14.110292,72.301178,56.826427,-113.455429,84.636581,17.503778,29.005535,33.635254,52.720127,50.312279,7.217710,37.191593,57.108749,32.894867,29.700762
293,0,-70.316704,150.603928,12.327000,-14.165375,72.282356,56.800617,-113.464584,84.558762,17.419676,28.998043,33.641563,52.711868,50.278156,7.231347,37.190491,57.085403,32.908489,29.682156
294,0,-70.327156,150.566635,12.281796,-14.187581,72.305283,56.791264,-113.468582,84.561729,17.416950,28.989382,33.620010,52.714314,50.286602,7.206739,37.180485,57.075729,32.869087,29.702654
295,0,-70.394295,150.568253,12.216545,-14.214793,72.264565,56.757301,-113.459923,84.512344,17.367699,28.904999,33.633648,52.702816,50.269291,7.204973,37.185547,57.053387,32.880470,29.707190
296,0,-70.360619,150.543152,12.176643,-14.268658,72.266106,56.706787,-113.573151,84.607269,17.267605,28.884747,33.622246,52.680187,50.264790,7.199582,37.184448,57.032135,32.864407,29.701679
297,0,-70.362534,150.512375,12.093212,-14.301851,72.233360,56.697536,-113.576660,84.615555,17.211182,28.878122,33.628929,52.668472,50.275661,7.199260,37.184814,57.035736,32.841232,29.703615
298,0,-70.309090,150.530945,12.074792,-14.299190,72.234573,56.671444,-113.576836,84.640053,17.107340,28.854145,33.612125,52.659351,50.215141,7.198397,37.155544,56.976791,32.915535,29.594780
299,0,-70.307274,150.560623,12.008962,-14.358589,72.230637,56.604530,-113.606941,84.617149,17.096697,28.823454,33.596169,52.658672,50.199394,7.203028,37.139629,56.978451,32.863934,29.667215
300,0,-70.304146,150.557556,11.999969,-14.324791,72.243507,56.599026,-113.607674,84.614662,17.100069,28.820702,33.618465,52.640388,50.184353,7.213907,37.124622,56.954536,32.910786,29.587412
301,0,-70.270210,150.570633,11.996295,-14.355347,72.259354,56.607792,-113.590683,84.709450,17.087656,28.825552,33.624706,52.626598,50.188736,7.231744,37.135555,56.953140,32.854862,29.685133
302,0,-70.272240,150.569290,11.993529,-14.284386,72.251358,56.610260,-113.590683,84.709450,17.087656,28.861607,33.630779,52.643284,50.176685,7.238632,37.132507,56.979618,32.848358,29.680386
303,0,-70.212524,150.599503,12.044515,-14.277040,72.303719,56.637840,-113.515312,84.649155,17.211374,28.867441,33.640823,52.626255,50.181347,7.242277,37.129101,56.973385,32.850735,29.671127
304,0,-70.157906,150.642120,12.104401,-14.266212,72.318474,56.644238,-113.500679,84.733795,17.216866,28.870625,33.628277,52.641079,50.179317,7.239042,37.118610,56.997456,32.838852,29.677446
305,0,-70.117523,150.639099,12.134728,-14.224169,72.272179,56.674717,-113.494011,84.731171,17.260117,28.879917,33.617355,52.668194,50.234535,7.179047,37.161148,57.005215,32.840130,29.691851
306,0,-70.102440,150.677979,12.192530,-14.216969,72.281479,56.690083,-113.505951,84.787598,17.261972,28.881615,33.610218,52.670822,50.222000,7.198627,37.169861,57.024754,32.831108,29.692928
307,0,-70.085182,150.699646,12.218484,-14.211700,72.312149,56.691669,-113.484879,84.874687,17.298985,28.877783,33.611378,52.670860,50.232368,7.176005,37.174080,57.012253,32.836910,29.699825
308,0,-70.073921,150.701202,12.236516,-14.209876,72.297325,56.699158,-113.482986,84.876122,17.296816,28.876156,33.623863,52.665558,50.191971,7.171896,37.163383,57.026821,32.814331,29.712803
309,0,-70.052750,150.743118,12.280233,-14.189466,72.311539,56.695347,-113.484940,84.876534,17.296787,28.879896,33.608372,52.672337,50.262859,7.121923,37.221722,57.032837,32.797680,29.733709
310,0,-70.012611,150.752060,12.284060,-14.171767,72.286575,56.686596,-113.486549,84.955124,17.237059,28.879183,33.606518,52.688389,50.245354,7.143981,37.216110,57.034573,32.796436,29.730097
311,0,-70.015015,150.770630,12.278674,-14.145204,72.272614,56.700649,-113.372154,84.871605,17.288460,28.873072,33.611771,52.678974,50.261509,7.155364,37.209949,57.051094,32.792927,29.721031
312,0,-69.984276,150.809357,12.254066,-14.179762,72.314102,56.668415,-113.384079,84.962257,17.243641,28.872801,33.612247,52.665810,50.239449,7.172578,37.200607,57.028431,32.801929,29.721291
313,0,-70.015244,150.837799,12.277640,-14.192357,72.327431,56.674564,-113.392548,84.955978,17.279352,28.863102,33.607609,52.667053,50.213943,7.142643,37.213322,57.027988,32.793015,29.731764
314,0,-69.969704,150.826233,12.313128,-14.169951,72.293533,56.691975,-113.384117,84.962898,17.242924,28.886835,33.591030,52.672783,50.229107,7.125844,37.222298,57.037815,32.781143,29.748173
315,0,-69.985229,150.842850,12.301483,-14.172794,72.326141,56.698193,-113.397507,85.018227,17.244759,28.879597,33.600700,52.668358,50.180569,7.173609,37.176369,57.004677,32.806034,29.712622
316,0,-69.990990,150.879410,12.285056,-14.181673,72.333420,56.675045,-113.389603,85.010696,17.294937,28.855589,33.620693,52.649212,50.090309,7.232542,37.099018,56.941498,32.844944,29.709042
317,0,-69.967796,150.925964,12.300068,-14.171420,72.368477,56.664631,-113.396301,85.006042,17.327883,28.858347,33.621414,52.636494,50.153919,7.213192,37.128418,56.946949,32.844208,29.707010
318,0,-69.977356,150.870621,12.283569,-14.190237,72.366074,56.650368,-113.491776,85.112411,17.247639,28.854267,33.625885,52.623276,50.177155,7.177739,37.154385,56.968086,32.837234,29.700161
319,0,-70.044456,150.872314,12.258721,-14.201216,72.361702,56.642864,-113.483284,85.045616,17.265383,28.852697,33.632145,52.615425,50.151497,7.215695,37.124287,56.981087,32.831799,29.704262
320,0,-70.019707,150.882233,12.247648,-14.203801,72.358009,56.650230,-113.501900,85.036499,17.203365,28.827192,33.646809,52.621994,50.143162,7.226119,37.124466,56.937618,32.861809,29.698486
321,0,-70.058243,150.815643,12.188728,-14.233645,72.349159,56.603600,-113.501152,85.035789,17.198713,28.826185,33.638672,52.609711,50.104824,7.238328,37.109653,56.926182,32.871059,29.708473
322,0,-70.032410,150.802429,12.140539,-14.271784,72.347321,56.564671,-113.495346,84.971741,17.171310,28.778519,33.607170,52.602016,50.112816,7.217554,37.121929,56.913368,32.837864,29.704170
323,0,-70.035339,150.770737,12.115417,-14.283134,72.349388,56.561802,-113.524727,84.947998,17.162184,28.746174,33.623890,52.595978,50.081612,7.194635,37.130558,56.874840,32.849419,29.728207
324,0,-70.091576,150.771164,12.045595,-14.338365,72.322426,56.541527,-113.605400,84.994843,17.083187,28.734917,33.614086,52.585510,50.095291,7.190665,37.137123,56.883675,32.848888,29.726816
325,0,-70.118355,150.736481,11.980706,-14.349154,72.292442,56.517841,-113.616150,84.933495,17.020863,28.710468,33.620377,52.576935,50.050552,7.212519,37.138565,56.858402,32.812756,29.743950
326,0,-70.149536,150.724991,11.917505,-14.367537,72.283585,56.484726,-113.611458,84.872505,16.989986,28.676609,33.589584,52.585892,50.095161,7.174042,37.143448,56.825851,32.812355,29.745623
327,0,-70.129242,150.694290,11.919566,-14.404151,72.243019,56.485706,-113.614929,84.876488,16.938816,28.677029,33.585125,52.569347,50.088711,7.160911,37.163418,56.830120,32.789062,29.742451
328,0,-70.130585,150.706680,11.893634,-14.452597,72.243240,56.481083,-113.623932,84.792313,16.908531,28.657215,33.585629,52.592709,50.065281,7.177207,37.161301,56.808842,32.782532,29.761074
329,0,-70.098007,150.704330,11.849365,-14.451617,72.235924,56.473530,-113.624733,84.803841,16.889626,28.669170,33.588451,52.591236,50.061306,7.184020,37.169472,56.773849,32.845161,29.663342
330,0,-70.089897,150.688599,11.827509,-14.467960,72.262245,56.448856,-113.622307,84.804611,16.887917,28.656141,33.581169,52.595840,50.048325,7.192159,37.160130,56.767120,32.770954,29.754520
331,0,-70.070831,150.721970,11.824417,-14.483871,72.270187,56.435535,-113.636589,84.871056,16.871950,28.669418,33.589954,52.582653,50.088337,7.159570,37.178303,56.781185,32.766850,29.756741
332,0,-70.057983,150.753143,11.822400,-14.483320,72.283722,56.436108,-113.615250,84.914345,16.812990,28.663754,33.599358,52.562187,50.067165,7.169132,37.171196,56.787170,32.760071,29.764284
333,0,-70.038757,150.757751,11.782125,-14.438795,72.304703,56.411720,-113.612701,84.985901,16.803339,28.651457,33.609978,52.561298,50.017979,7.206409,37.150898,56.761543,32.774010,29.757950
334,0,-69.964340,150.798615,11.797694,-14.464403,72.309715,56.445145,-113.632034,85.058952,16.737009,28.653862,33.599751,52.573349,50.092625,7.172138,37.187820,56.804672,32.750225,29.775415
335,0,-69.842934,150.772202,11.871434,-14.435205,72.291176,56.401157,-113.634521,85.066605,16.723253,28.666332,33.597305,52.590591,50.109447,7.161289,37.203156,56.791862,32.748951,29.782173
336,0,-69.836029,150.812592,11.820021,-14.423036,72.302254,56.398804,-113.529274,85.057190,16.747995,28.659468,33.616673,52.571693,50.076363,7.192939,37.119545,56.795677,32.753315,29.773090
337,0,-69.801491,150.797043,11.818560,-14.395538,72.336174,56.424679,-112.402710,82.916985,17.399324,28.690647,33.645222,52.583561,50.059536,7.191072,37.158371,56.816654,32.728947,29.766901
338,0,-69.790054,150.763092,11.852209,-14.391144,72.318756,56.437443,-112.546844,83.154968,17.231623,28.692444,33.626167,52.586658,50.092506,7.197497,37.161819,56.807159,32.714237,29.775883
339,0,-69.851784,150.797028,11.833072,-14.388466,72.339088,56.408993,-112.638573,83.310150,17.152704,28.672588,33.652283,52.559776,50.003433,7.239571,37.090557,56.786629,32.740829,29.777321
340,0,-69.988091,150.797806,11.734505,-14.377696,72.337791,56.408421,-112.665833,83.367050,17.129925,28.695415,33.630306,52.583702,50.037804,7.192343,37.128185,56.813812,32.735756,29.777973
341,0,-69.914276,150.731979,11.759812,-14.403930,72.351097,56.452454,-112.622040,83.224457,17.134617,28.699606,33.618843,52.604103,50.091312,7.193496,37.147419,56.816967,32.785538,29.663031
342,0,-69.895294,150.751053,11.789499,-14.394565,72.319168,56.453510,-112.672066,83.267616,17.101233,28.708364,33.628983,52.589813,50.079334,7.200739,37.136116,56.861061,32.754627,29.748573
343,0,-69.882332,150.726257,11.841401,-14.416739,72.297508,56.418434,-112.701126,83.169533,17.071024,28.709436,33.629772,52.589474,50.105873,7.198450,37.134346,56.854767,32.752270,29.767309
344,0,-69.933365,150.672867,11.809332,-14.448379,72.297630,56.412510,-112.553818,82.868736,17.063301,28.709391,33.632366,52.563133,50.142864,7.184731,37.174755,56.821888,32.735355,29.746252
345,0,-69.928307,150.683533,11.759116,-14.491305,72.292572,56.363747,-112.524445,82.735863,17.011650,28.691427,33.629547,52.560993,50.138317,7.192092,37.158978,56.789040,32.740196,29.743946
346,0,-70.070549,150.669846,11.669437,-14.497664,72.267883,56.349670,-112.537827,82.630943,17.018530,28.658064,33.603745,52.534481,50.098507,7.191209,37.136627,56.749420,32.715942,29.756773
347,0,-70.132416,150.671646,11.636503,-14.531134,72.267441,56.334629,-112.494919,82.492256,17.001612,28.629932,33.612156,52.522434,50.053314,7.213413,37.113613,56.702522,32.741035,29.765350
348,0,-70.144279,150.639313,11.658450,-14.573156,72.255943,56.319984,-112.444138,82.370110,17.040955,28.571623,33.644825,52.511585,50.020615,7.246326,37.124386,56.660912,32.710453,29.775391
349,0,-70.216164,150.654694,11.640154,-14.616403,72.260857,56.325848,-112.448059,82.151772,17.061708,28.554327,33.653419,52.483414,49.962742,7.272593,37.092388,56.569305,32.721439,29.760490
350,0,-70.229370,150.668839,11.639967,-14.611765,72.245728,56.328678,-112.435295,82.096397,17.067188,28.567976,33.633644,52.478745,50.002464,7.269508,37.099419,56.577106,32.772461,29.669147
351,0,-70.270103,150.638077,11.679512,-14.646528,72.266930,56.333912,-112.341835,81.959953,17.133627,28.556042,33.662647,52.471516,49.970470,7.262280,37.129333,56.551342,32.734859,29.777332
352,0,-70.248871,150.649918,11.692468,-14.659386,72.264671,56.309696,-112.340874,81.943108,17.170744,28.525850,33.676201,52.459660,49.993900,7.284274,37.106239,56.520763,32.749214,29.756361
353,0,-70.320526,150.667709,11.669714,-14.634530,72.277260,56.333965,-112.365425,81.933548,17.274651,28.511093,33.665279,52.441528,49.970871,7.311411,37.076431,56.509010,32.751446,29.748373
354,0,-70.329353,150.680222,11.697570,-14.650825,72.272095,56.315094,-112.284790,81.755104,17.296984,28.504723,33.679699,52.420830,49.999847,7.286216,37.103710,56.512310,32.753819,29.734526
355,0,-70.316238,150.675903,11.757133,-14.636190,72.267685,56.333744,-112.180191,81.667343,17.452396,28.509634,33.667553,52.437084,49.961048,7.315027,37.076069,56.495445,32.783295,29.747385
356,0,-70.361061,150.681412,11.775071,-14.640141,72.275932,56.338600,-112.122833,81.578171,17.534174,28.509594,33.679947,52.440166,49.952583,7.307901,37.101028,56.458984,32.765476,29.770645
357,0,-70.305664,150.715988,11.785023,-14.637156,72.268082,56.334034,-112.367798,82.081398,17.665512,28.526260,33.679295,52.437710,49.947449,7.322515,37.090145,56.494026,32.784042,29.755304
358,0,-70.313972,150.696701,11.804746,-14.610546,72.286957,56.361336,-112.120781,81.723045,17.842207,28.542652,33.697800,52.440704,49.975914,7.334548,37.117447,56.508255,32.789410,29.764471
359,0,-70.324585,150.704742,11.804551,-14.597257,72.311394,56.325008,-113.808090,84.832664,16.898537,28.542158,33.735195,52.426380,49.906921,7.384639,37.050549,56.490200,32.804440,29.744024
360,0,-70.311714,150.700348,11.819848,-14.577624,72.322304,56.336174,-113.803001,84.829117,16.948406,28.582067,33.744038,52.475945,49.995583,7.347704,37.088173,56.511486,32.816441,29.749952
361,0,-70.284576,150.693054,11.819500,-14.571511,72.362022,56.354031,-113.816414,84.891800,16.936447,28.577557,33.773384,52.454811,49.983669,7.352889,37.074127,56.564468,32.805824,29.749256
362,0,-70.280334,150.709351,11.831013,-14.519054,72.314209,56.351303,-113.802254,84.831718,16.944973,28.596422,33.761826,52.441147,50.044571,7.346838,37.094437,56.567600,32.805958,29.743902
363,0,-70.283096,150.705902,11.862507,-14.491501,72.340363,56.351871,-113.815399,84.889648,16.938810,28.619480,33.749710,52.456047,50.040287,7.348370,37.090366,56.577179,32.793095,29.746964
364,0,-70.332336,150.677429,11.872663,-14.511312,72.340454,56.361145,-113.799606,84.808365,16.977728,28.609941,33.733704,52.456966,50.013653,7.372161,37.062199,56.581875,32.811119,29.756834
365,0,-70.361221,150.678589,11.868760,-14.515943,72.328087,56.370678,-113.791939,84.804199,17.021894,28.604856,33.753288,52.460281,50.040649,7.362177,37.087040,56.563061,32.855255,29.636009
366,0,-70.350365,150.648270,11.897431,-14.514404,72.307899,56.367405,-113.795662,84.725388,17.048977,28.628366,33.737427,52.475994,50.025837,7.361822,37.086090,56.580597,32.808781,29.726175
367,0,-70.412346,150.657364,11.929830,-14.525769,72.298241,56.384747,-113.792503,84.719269,17.055788,28.604073,33.735035,52.458290,50.065773,7.338920,37.111839,56.554310,32.825996,29.731499
368,0,-70.407417,150.662003,11.919417,-14.518918,72.314659,56.373772,-113.792755,84.723129,17.050989,28.624256,33.748844,52.458935,50.046314,7.359390,37.096611,56.578243,32.802769,29.730896
369,0,-70.416626,150.626617,11.929271,-14.498933,72.318939,56.384243,-113.784676,84.725845,17.086172,28.630375,33.771305,52.453773,50.075317,7.336112,37.118507,56.548332,32.839657,29.729883
370,0,-70.452698,150.647552,11.952513,-14.501802,72.313759,56.390690,-113.785477,84.714035,17.105959,28.655106,33.795502,52.475014,50.100952,7.363461,37.104385,56.543304,32.833149,29.712988
371,0,-70.448090,150.638275,11.938611,-14.498751,72.334023,56.374817,-113.781792,84.642174,17.160219,28.653528,33.792419,52.479824,50.102821,7.363062,37.094845,56.560596,32.827091,29.722660
372,0,-70.501419,150.657516,11.924756,-14.470887,72.331963,56.366421,-113.874893,84.752739,17.076996,28.654867,33.788326,52.460155,50.110867,7.365474,37.085045,56.565151,32.821896,29.707256
373,0,-70.464905,150.569534,11.918007,-14.459493,72.347878,56.375172,-113.862320,84.739967,17.128424,28.687927,33.786488,52.437923,50.126854,7.372478,37.077671,56.614090,32.821835,29.709709
374,0,-70.516167,150.574615,11.885795,-14.490431,72.350731,56.371353,-113.858727,84.724854,17.150774,28.678343,33.804329,52.441692,50.144264,7.356211,37.105316,56.595062,32.831951,29.704407
375,0,-70.566055,150.535324,11.906761,-14.474613,72.349472,56.378365,-113.880043,84.627899,17.164703,28.683285,33.812908,52.456158,50.146393,7.352181,37.110397,56.597347,32.832558,29.715414
376,0,-70.604126,150.529495,11.925319,-14.483232,72.337852,56.361866,-113.864624,84.561386,17.180471,28.670475,33.822865,52.439362,50.130672,7.396206,37.091278,56.566349,32.852013,29.714209
377,0,-70.671173,150.480011,11.912593,-14.486720,72.323296,56.377159,-113.862427,84.558815,17.182699,28.675039,33.811012,52.453289,50.187836,7.378672,37.109627,56.570980,32.844601,29.712864
378,0,-70.694130,150.493774,11.943502,-14.471266,72.327530,56.393566,-113.846741,84.482368,17.216087,28.708662,33.778065,52.427254,50.185936,7.380198,37.108196,56.590481,32.847977,29.714445
379,0,-70.753357,150.434769,11.961940,-14.480236,72.319870,56.404812,-113.844269,84.393532,17.337803,28.693161,33.829472,52.423538,50.164692,7.378504,37.110119,56.568771,32.840664,29.712301
380,0,-70.769028,150.401779,11.953532,-14.482787,72.289680,56.381657,-113.962982,84.476639,17.245028,28.682091,33.822147,52.451576,50.151833,7.410821,37.098587,56.569340,32.843826,29.708889
381,0,-70.766891,150.394379,11.980806,-14.504485,72.267776,56.388783,-113.956558,84.476845,17.286583,28.683189,33.810631,52.422558,50.139652,7.426548,37.072678,56.551170,32.855091,29.707003
382,0,-70.803452,150.411362,11.949694,-14.532268,72.301872,56.374428,-113.941681,84.408775,17.305576,28.681183,33.823147,52.406723,50.106319,7.431299,37.065338,56.501656,32.891354,29.692493
383,0,-70.908371,150.443085,11.900417,-14.541162,72.303040,56.338234,-113.941460,84.406273,17.308374,28.676020,33.859348,52.400578,50.091648,7.435703,37.053581,56.471130,32.895485,29.682430
384,0,-70.798248,150.401306,11.900949,-14.501700,72.330002,56.332176,-113.955055,84.398163,17.308285,28.677925,33.870152,52.385155,50.106777,7.437671,37.061985,56.468338,32.904327,29.663193
385,0,-70.824593,150.412308,11.885074,-14.542065,72.341721,56.315563,-113.957924,84.398209,17.308933,28.658232,33.867622,52.377140,50.090878,7.437976,37.058807,56.487759,32.945816,29.572870
386,0,-70.813782,150.431305,11.932959,-14.484677,72.352959,56.306988,-113.954041,84.467896,17.291256,28.669668,33.866989,52.376740,50.121243,7.465356,37.054916,56.479645,32.897717,29.653816
387,0,-70.802155,150.457443,11.912536,-14.503350,72.367958,56.292850,-113.956589,84.474884,17.283926,28.669010,33.873585,52.355995,50.138126,7.441984,37.055367,56.500587,32.898518,29.648029
388,0,-70.791275,150.459808,11.920552,-14.461289,72.339996,56.326012,-113.966469,84.466850,17.331297,28.690451,33.886154,52.384388,50.120037,7.472544,37.061588,56.500851,32.935062,29.572433
389,0,-70.742027,150.448654,11.944590,-14.433485,72.325066,56.322819,-113.978790,84.524857,17.324577,28.686155,33.873421,52.382168,50.149288,7.431849,37.068317,56.526043,32.863529,29.640257
390,0,-70.746529,150.465469,11.983913,-14.435096,72.376785,56.310986,-113.940544,84.546654,17.376539,28.699629,33.874832,52.379700,50.152004,7.466275,37.063442,56.490677,32.869873,29.636225
391,0,-70.731735,150.459274,11.987005,-14.427316,72.375565,56.316242,-113.858078,84.444641,17.418278,28.712879,33.905251,52.386047,50.163746,7.474875,37.055191,56.476231,32.882893,29.637671
392,0,-70.729187,150.468613,12.040827,-14.408973,72.403160,56.354679,-113.879845,84.497238,17.489408,28.733751,33.920311,52.418152,50.185585,7.444216,37.078220,56.474316,32.861717,29.651833
393,0,-70.696777,150.475754,12.104739,-14.371897,72.369995,56.377918,-113.881485,84.499931,17.491116,28.735952,33.923500,52.413605,50.197083,7.462579,37.063099,56.467548,32.824615,29.665613
394,0,-70.702202,150.548096,12.141249,-14.323048,72.393143,56.381130,-113.863304,84.593498,17.490152,28.786753,33.908428,52.418224,50.178535,7.487566,37.070911,56.480331,32.832409,29.662107
395,0,-70.649055,150.554993,12.206996,-14.296371,72.428596,56.405972,-113.864731,84.566536,17.596395,28.790630,33.913437,52.415779,50.193729,7.482327,37.070488,56.488049,32.850040,29.652037
396,0,-70.652336,150.573608,12.279631,-14.278430,72.427361,56.421101,-113.748100,84.539368,17.687328,28.808475,33.911739,52.414661,50.193653,7.475785,37.069035,56.483627,32.869766,29.662228
397,0,-70.644089,150.630051,12.344339,-14.252954,72.432426,56.435917,-113.770187,84.591011,17.763756,28.816656,33.893860,52.437580,50.215736,7.471621,37.094349,56.489811,32.863834,29.686800
398,0,-70.631737,150.608871,12.411273,-14.200950,72.419838,56.495586,-113.742798,84.607666,17.794027,28.827950,33.891949,52.454964,50.242027,7.455020,37.106949,56.484955,32.860588,29.681040
399,0,-70.588562,150.644043,12.422182,-14.191170,72.454910,56.481987,-113.754990,84.675209,17.774609,28.837519,33.912422,52.455032,50.237125,7.472311,37.098621,56.482376,32.852234,29.679384
400,0,-70.624176,150.682190,12.417926,-14.204482,72.467354,56.468376,-114.543106,89.391594,15.519090,28.835495,33.941910,52.425655,50.162582,7.509074,37.050686,56.490669,32.909016,29.563860
401,0,-70.619835,150.671600,12.444311,-14.181783,72.465103,56.473278,-114.511185,89.448051,15.517747,28.814075,33.943367,52.417027,50.208958,7.479673,37.083458,56.480045,32.855602,29.664677
402,0,-70.620712,150.697006,12.470872,-14.182073,72.452873,56.493641,-114.512039,89.449951,15.521329,28.830725,33.934166,52.422203,50.225529,7.493647,37.091080,56.444187,32.830475,29.671654
403,0,-70.550041,150.704025,12.483883,-14.169390,72.458260,56.484913,-114.512177,89.448555,15.511517,28.826002,33.932884,52.422096,50.227989,7.473925,37.106152,56.478260,32.806820,29.674582
404,0,-70.607880,150.733765,12.454669,-14.162618,72.480904,56.460526,-114.523796,89.519844,15.457145,28.830437,33.928181,52.422432,50.221130,7.483074,37.089886,56.447037,32.798847,29.660463
405,0,-70.582932,150.717743,12.442585,-14.180467,72.465752,56.474838,-114.528427,89.580925,15.445518,28.847967,33.952068,52.420181,50.235497,7.456043,37.102627,56.413025,32.793827,29.684227
406,0,-70.581490,150.719635,12.442533,-14.185070,72.474846,56.463718,-114.539543,89.616585,15.402193,28.813351,33.938076,52.414894,49.881588,7.814217,37.071625,56.421154,32.736465,29.687788
407,0,-70.565033,150.715942,12.461369,-14.167983,72.470955,56.463226,-114.545723,89.692589,15.304386,28.832285,33.900993,52.415745,50.208950,7.457662,37.084393,56.436092,32.724285,29.694189
408,0,-70.545677,150.701355,12.424026,-14.161728,72.468712,56.428020,-114.547989,89.739738,15.248734,28.848021,33.913933,52.457619,50.234417,7.452215,37.104679,56.417686,32.719536,29.704500
409,0,-70.506775,150.701111,12.365851,-14.175031,72.457260,56.416744,-114.552048,89.769951,15.228728,28.842682,33.918953,52.438179,50.239967,7.459839,37.095745,56.408150,32.728439,29.701319
410,0,-70.486176,150.710663,12.333290,-14.185298,72.453758,56.395752,-113.752571,84.914345,17.714211,28.833847,33.913456,52.427662,50.220909,7.473410,37.073647,56.414948,32.724194,29.695471
411,0,-70.436470,150.710861,12.284267,-14.190437,72.486534,56.378220,-113.661781,84.815620,17.667450,28.844109,33.907707,52.411648,50.196529,7.481537,37.059532,56.448174,32.688770,29.694878
412,0,-70.394676,150.664047,12.260473,-14.170362,72.472664,56.390820,-113.662567,84.825600,17.652681,28.839935,33.900524,52.395390,50.246464,7.455672,37.094654,56.456337,32.687992,29.712971
413,0,-70.393303,150.649078,12.220363,-14.172006,72.472855,56.391537,-113.664665,84.828262,17.650627,28.866480,33.921391,52.417603,50.266747,7.424572,37.116608,56.464390,32.670193,29.717249
414,0,-70.333382,150.707184,12.189273,-14.135210,72.453453,56.395515,-113.666252,84.825035,17.648293,28.884697,33.957680,52.433144,50.236034,7.439063,37.107220,56.496441,32.662937,29.710436
415,0,-70.331375,150.681335,12.147172,-14.154131,72.490982,56.367565,-113.663887,84.837372,17.562155,28.894661,33.940899,52.436844,50.269714,7.436050,37.097218,56.517929,32.637630,29.712688
416,0,-70.314880,150.672180,12.126719,-14.150163,72.494980,56.341152,-113.665329,84.840889,17.553316,28.908260,33.937798,52.438580,50.275406,7.434398,37.090725,56.523975,32.635895,29.714083
417,0,-70.295753,150.662598,12.089158,-14.135462,72.477966,56.390148,-113.573280,84.712891,17.609503,28.915226,33.933407,52.443420,50.280163,7.422754,37.113667,56.533833,32.626602,29.717318
418,0,-70.311432,150.639221,12.087689,-14.119841,72.450485,56.389923,-113.664154,84.819069,17.574385,28.914865,33.926643,52.452122,50.274944,7.423831,37.119030,56.512299,32.657360,29.714436
419,0,-70.313194,150.628052,12.096332,-14.170298,72.482307,56.373318,-113.661316,84.800377,17.598633,28.885540,33.938725,52.459156,50.260246,7.423048,37.106441,56.536739,32.659554,29.717455
420,0,-70.345085,150.626511,12.056231,-14.149367,72.469872,56.360432,-113.639290,84.716629,17.627172,28.879913,33.943676,52.453018,50.254646,7.440499,37.097027,56.504593,32.644157,29.723030
421,0,-70.314087,150.630539,12.044175,-14.165937,72.486763,56.361401,-113.679642,84.698387,17.565716,28.869204,33.916119,52.437504,50.248867,7.430543,37.093422,56.494152,32.647758,29.715855
422,0,-70.343849,150.607437,12.026126,-14.166972,72.473160,56.355469,-113.678810,84.686989,17.579105,28.895041,33.917747,52.459286,50.247250,7.434679,37.096741,56.514927,32.634548,29.734978
423,0,-70.379578,150.619370,12.003771,-14.197975,72.476013,56.341965,-113.676758,84.691727,17.568274,28.856138,33.926163,52.431042,50.264305,7.419594,37.100491,56.508415,32.646488,29.720884
424,0,-70.355652,150.607117,11.948587,-14.209249,72.452538,56.321972,-113.666069,84.618202,17.594732,28.861946,33.937763,52.429974,50.266094,7.433206,37.115971,56.478279,32.649887,29.735405
425,0,-70.411781,150.608841,11.911835,-14.222071,72.440834,56.309933,-113.671051,84.624855,17.546717,28.842527,33.935036,52.414909,50.264069,7.430492,37.096069,56.507305,32.690899,29.622545
426,0,-70.382927,150.569870,11.876571,-14.244085,72.460205,56.279415,-113.689796,84.608124,17.489088,28.827757,33.934631,52.391914,50.249550,7.437638,37.100342,56.481659,32.655144,29.722597
427,0,-70.406815,150.565079,11.846240,-14.259517,72.469055,56.282845,-113.676674,84.541023,17.506742,28.825941,33.928257,52.399067,50.235802,7.442225,37.079357,56.482288,32.651001,29.725393
428,0,-70.457550,150.539169,11.842750,-14.268304,72.447380,56.288101,-113.765709,84.652451,17.462250,28.820526,33.922459,52.402863,50.244568,7.438392,37.099140,56.461906,32.636135,29.720890
429,0,-70.443054,150.557022,11.831589,-14.276738,72.416649,56.274940,-113.762215,84.656013,17.456955,28.823441,33.922607,52.404167,50.224957,7.450284,37.088825,56.447960,32.645237,29.707733
430,0,-70.466133,150.558670,11.834070,-14.279892,72.424988,56.263859,-113.758469,84.581696,17.515289,28.818512,33.938961,52.384998,50.252026,7.460578,37.113110,56.443424,32.644409,29.706348
431,0,-70.462852,150.557526,11.833880,-14.287162,72.443642,56.270298,-113.758095,84.577660,17.519726,28.813896,33.949062,52.371834,50.244530,7.462590,37.085682,56.443649,32.644001,29.723938
432,0,-70.456665,150.556625,11.848404,-14.299585,72.453529,56.257278,-113.756699,84.563507,17.541231,28.821457,33.937622,52.384659,50.242413,7.459748,37.073647,56.431740,32.646889,29.711401
433,0,-70.506638,150.586288,11.882208,-14.287320,72.441193,56.267231,-113.757957,84.567123,17.537296,28.795357,33.955933,52.385136,50.235653,7.444114,37.094604,56.421669,32.665737,29.727579
434,0,-70.453293,150.578720,11.921413,-14.286442,72.443222,56.270130,-113.849297,84.731087,17.488602,28.764122,33.944366,52.377571,50.227310,7.454829,37.088501,56.415730,32.672352,29.728468
435,0,-70.446175,150.599136,11.934248,-14.326028,72.453499,56.262489,-113.858490,84.741455,17.478891,28.781157,33.940498,52.376617,50.224785,7.453822,37.105183,56.380363,32.691082,29.720385
436,0,-70.460159,150.648041,11.917497,-14.308630,72.441261,56.246582,-113.851410,84.732063,17.488037,28.758575,33.968903,52.377316,50.169037,7.462551,37.081059,56.391541,32.681896,29.738241
437,0,-70.453133,150.647598,11.905124,-14.355235,72.501244,56.227123,-113.770950,84.631676,17.521770,28.709576,33.959599,52.346325,50.184849,7.471144,37.053864,56.378323,32.696808,29.733393
438,0,-70.415634,150.687500,11.933002,-14.346625,72.494812,56.235737,-113.783905,84.705971,17.494848,28.706661,33.964382,52.341530,49.794090,7.813883,37.040802,56.338833,32.717186,29.727989
439,0,-70.403961,150.695358,11.917381,-14.339094,72.480072,56.223980,-113.874237,84.824440,17.437550,28.699394,33.980507,52.340771,50.155563,7.468046,37.070644,56.345600,32.707520,29.739239
440,0,-70.406357,150.708618,11.878539,-14.350925,72.501472,56.219925,-113.790108,84.786903,17.425354,28.698990,33.978352,52.342907,50.139256,7.478851,37.051025,56.361557,32.699924,29.736536
441,0,-70.417923,150.702057,11.826990,-14.358064,72.501053,56.180893,-113.779602,84.728966,17.387445,28.669619,33.965809,52.336868,50.146744,7.467101,37.048214,56.342171,32.718422,29.726097
442,0,-70.405876,150.698547,11.804749,-14.349180,72.499039,56.172607,-113.791832,84.801170,17.358568,28.670830,33.968258,52.333321,50.146873,7.476657,37.058132,56.331001,32.714771,29.739977
443,0,-70.409363,150.678085,11.776884,-14.375133,72.505608,56.142502,-113.777954,84.751427,17.285805,28.672085,33.964035,52.338493,50.097095,7.460883,37.040459,56.357769,32.706902,29.736530
444,0,-70.418541,150.696762,11.734468,-14.385386,72.470818,56.132591,-113.779259,84.765182,17.264460,28.668352,33.960598,52.340233,49.750095,7.818131,37.012989,56.357624,32.707451,29.745045
445,0,-70.479370,150.705978,11.709276,-14.394629,72.462318,56.129757,-113.878929,84.844124,17.181759,28.670210,33.957523,52.326729,50.131920,7.446685,37.073666,56.355614,32.734608,29.728807
446,0,-70.456268,150.632889,11.646113,-14.402010,72.469582,56.119041,-113.873016,84.791199,17.139631,28.664961,33.948681,52.335884,49.737732,7.809687,37.043381,56.372482,32.729332,29.736631
447,0,-70.545372,150.663208,11.638987,-14.440588,72.458534,56.117855,-113.859100,84.719658,17.162794,28.666121,33.949142,52.336594,49.722424,7.824161,37.022202,56.364124,32.731773,29.741089
448,0,-70.569832,150.621445,11.606350,-14.467537,72.440857,56.097889,-113.887222,84.638412,17.154173,28.661989,33.943295,52.318478,50.113937,7.491138,37.046066,56.360321,32.758144,29.717249
449,0,-70.591393,150.595627,11.550883,-14.471129,72.452171,56.084713,-113.888863,84.636154,17.117289,28.667063,33.950706,52.335953,49.767689,7.798537,37.048058,56.368427,32.741013,29.735193
450,0,-70.616516,150.567261,11.522924,-14.481204,72.429115,56.070675,-113.873039,84.563904,17.140577,28.641251,33.925613,52.342159,49.746296,7.789080,37.033501,56.358646,32.731438,29.749271
451,0,-70.597740,150.548813,11.510822,-14.472548,72.415108,56.073410,-113.861687,84.582489,17.080408,28.637247,33.937729,52.333302,49.755047,7.798923,37.041267,56.392426,32.743587,29.739582
452,0,-70.614265,150.511459,11.485253,-14.486073,72.408012,56.061684,-113.846718,84.511154,17.102411,28.642029,33.925377,52.322186,49.759640,7.810247,37.018555,56.370487,32.763073,29.737335
453,0,-70.630753,150.483047,11.422553,-14.489633,72.424194,56.058887,-113.853493,84.517395,17.057640,28.654715,33.937111,52.329754,49.725567,7.839983,37.011997,56.394375,32.756084,29.728611
454,0,-70.675537,150.443436,11.419722,-14.499329,72.428429,56.055054,-113.871666,84.413055,17.075373,28.654102,33.925140,52.305206,50.139282,7.491590,37.063442,56.368858,32.767754,29.723824
455,0,-70.675400,150.431305,11.410639,-14.510344,72.400345,56.068684,-113.876999,84.420990,17.066774,28.651930,33.928638,52.315605,49.783787,7.829772,37.041382,56.396648,32.752609,29.738825
456,0,-70.730225,150.415634,11.350052,-14.527745,72.392929,56.062817,-113.951523,84.448303,17.018885,28.629190,33.974735,52.313393,49.812637,7.819269,37.043652,56.390739,32.761299,29.738909
457,0,-70.808548,150.410614,11.305650,-14.532197,72.395996,56.056793,-113.968498,84.359840,17.017384,28.620836,33.950001,52.280128,49.779099,7.828750,37.021488,56.364246,32.774570,29.704662
458,0,-70.778534,150.365875,11.309587,-14.542045,72.400932,56.053185,-113.969940,84.367134,17.008118,28.632744,33.949162,52.273598,49.807243,7.822174,37.050644,56.354073,32.793663,29.725245
459,0,-70.787071,150.350357,11.306423,-14.563905,72.371384,56.046341,-113.952110,84.287498,17.038918,28.600889,33.976585,52.281189,49.774441,7.835099,37.044498,56.330666,32.803135,29.739532
460,0,-70.815170,150.320312,11.306218,-14.598393,72.352730,56.030533,-113.960724,84.290024,17.001032,28.559750,33.959419,52.278511,49.756130,7.846683,37.025753,56.351089,32.791706,29.739862
461,0,-70.827995,150.329269,11.308623,-14.594792,72.338707,56.015320,-113.938637,84.202957,17.082809,28.575771,33.974770,52.283825,49.723282,7.861791,37.017406,56.348011,32.803043,29.731247
462,0,-70.875641,150.328217,11.321507,-14.594936,72.338097,56.016365,-114.053841,84.300446,17.005625,28.559376,33.963512,52.273617,49.717892,7.846922,37.029118,56.327259,32.810360,29.724836
463,0,-70.868042,150.287766,11.328553,-14.589399,72.334717,56.021458,-114.061768,84.307442,16.962351,28.556816,33.964554,52.273762,49.720741,7.874710,37.023724,56.318211,32.827538,29.747782
464,0,-70.869225,150.309814,11.301973,-14.627532,72.357903,56.034786,-114.061630,84.305458,16.964966,28.593122,33.975113,52.281891,49.721531,7.884966,37.033669,56.359196,32.837799,29.720451
465,0,-70.918472,150.323090,11.286182,-14.602943,72.329102,56.028572,-114.061768,84.307442,16.962351,28.549459,33.942806,52.276249,49.724361,7.883962,37.035892,56.352432,32.847530,29.710030
466,0,-70.847504,150.288818,11.295939,-14.597054,72.330269,56.034443,-114.050430,84.311325,16.923800,28.573948,33.981754,52.276791,49.699043,7.923944,37.018566,56.359135,32.872219,29.695513
467,0,-70.837296,150.313644,11.343616,-14.601887,72.346611,56.058971,-113.976372,84.203140,17.002178,28.575470,33.981297,52.289860,49.658463,7.922582,37.017834,56.373783,32.891846,29.682528
468,0,-70.871010,150.312302,11.309524,-14.621655,72.362823,56.080772,-113.976372,84.203140,17.002178,28.573690,33.972282,52.299618,49.649956,7.921353,37.041393,56.342724,32.902721,29.676067
469,0,-70.865829,150.349991,11.322588,-14.611692,72.352325,56.082783,-113.974472,84.202469,17.002495,28.627478,33.944683,52.315998,49.629082,7.927871,37.028111,56.354568,32.899887,29.666954
470,0,-70.861443,150.348068,11.323515,-14.609196,72.368668,56.099514,-113.976372,84.203140,17.002178,28.636841,33.964249,52.313370,49.665951,7.922827,37.019413,56.394920,32.907669,29.676374
471,0,-70.852226,150.318344,11.344860,-14.580173,72.379311,56.107643,-113.976372,84.203140,17.002178,28.642059,33.962799,52.318825,50.171154,7.482852,37.082485,56.452118,32.947742,29.559120
472,0,-70.826767,150.322983,11.325902,-14.542437,72.399376,56.129257,-113.979004,84.201668,17.005180,28.663206,33.968933,52.330032,50.178734,7.512774,37.070343,56.445477,32.950165,29.542000
473,0,-70.833694,150.311279,11.312820,-14.521667,72.412132,56.131542,-113.933205,84.248520,16.951401,28.691544,34.007706,52.335842,50.198261,7.551181,37.058914,56.483368,32.913578,29.624779
474,0,-70.820061,150.301788,11.350142,-14.516273,72.407654,56.169785,-113.969208,84.213371,16.956676,28.717043,33.994587,52.349678,50.232029,7.520709,37.095650,56.499680,32.921497,29.612770
475,0,-70.825508,150.287231,11.326750,-14.500519,72.387085,56.195312,-113.881454,84.105072,17.002888,28.746500,34.007233,52.355961,50.237907,7.527217,37.086544,56.548317,32.909977,29.632004
476,0,-70.822807,150.281967,11.359632,-14.477034,72.453316,56.213360,-113.851196,84.132469,17.010471,28.779781,34.026657,52.370193,50.238541,7.550044,37.094070,56.569420,32.915806,29.627277
477,0,-70.820160,150.292328,11.384716,-14.431839,72.413269,56.217911,-113.836594,84.119072,17.060919,28.809052,34.054726,52.376347,50.255898,7.556268,37.106052,56.550823,32.938393,29.616079
478,0,-70.790085,150.280899,11.380219,-14.447300,72.451965,56.265720,-113.861557,84.115074,17.103573,28.832499,34.048321,52.383369,50.283424,7.540830,37.120934,56.585190,32.919903,29.632093
479,0,-70.808235,150.236465,11.393421,-14.456733,72.431633,56.274017,-113.926651,84.136497,17.104422,28.828960,34.060497,52.375828,50.250134,7.564255,37.088512,56.589603,32.923809,29.624596
480,0,-70.853378,150.256088,11.384928,-14.452711,72.409286,56.274704,-113.943687,84.051384,17.102385,28.792067,34.043262,52.376553,50.283646,7.523630,37.102703,56.594936,32.899654,29.624397
481,0,-70.953491,150.217377,11.367129,-14.478584,72.375237,56.245846,-113.946693,84.048805,17.069090,28.790510,33.967663,52.369579,50.242626,7.517794,37.095989,56.553707,32.889847,29.613298
482,0,-70.977913,150.178650,11.354652,-14.486694,72.366531,56.266651,-113.931641,83.981285,17.086374,28.787586,33.956245,52.380547,50.263786,7.517884,37.090275,56.537212,32.882935,29.641474
483,0,-70.972054,150.143692,11.354361,-14.555268,72.338348,56.254768,-114.038055,83.990700,17.058714,28.773520,33.987286,52.381233,50.255581,7.514034,37.099072,56.549679,32.877148,29.664253
484,0,-70.990448,150.107330,11.379655,-14.551668,72.360138,56.244545,-113.951729,83.885941,17.097672,28.761599,33.966930,52.382565,50.267338,7.516990,37.110085,56.520161,32.888756,29.679968
485,0,-71.008827,150.092133,11.364852,-14.576293,72.341187,56.260895,-114.024628,83.931862,17.065266,28.757135,33.970371,52.374168,50.241722,7.531154,37.085930,56.512280,32.873959,29.670885
486,0,-71.014595,150.094757,11.384711,-14.583966,72.316406,56.266941,-114.025833,83.941719,17.048180,28.756060,33.970776,52.374260,50.257427,7.529177,37.090031,56.514557,32.861801,29.672924
487,0,-71.054535,150.050751,11.367285,-14.584672,72.325645,56.252846,-114.024391,83.939880,17.055508,28.784754,33.989651,52.373875,50.268066,7.516398,37.086838,56.506378,32.873978,29.666595
488,0,-71.096420,150.090363,11.372345,-14.544995,72.325417,56.273106,-114.024895,83.933975,17.062780,28.785696,33.986340,52.377903,50.282345,7.519228,37.105007,56.506115,32.874557,29.659224
489,0,-71.114235,150.098541,11.348115,-14.539875,72.327606,56.296665,-114.032227,83.912994,17.164188,28.764738,34.001080,52.364201,49.920036,7.888494,37.060474,56.515594,32.895935,29.657204
490,0,-71.100952,150.055923,11.383945,-14.541549,72.319260,56.301170,-114.035057,83.910767,17.167803,28.804556,33.983604,52.374905,50.275890,7.533424,37.092331,56.526241,32.888546,29.657988
491,0,-71.158005,150.103561,11.390382,-14.527438,72.330154,56.324776,-114.032036,83.910721,17.166941,28.821615,33.994064,52.384445,50.285175,7.558079,37.087566,56.512314,32.874210,29.650442
492,0,-71.078156,150.040207,11.445800,-14.511215,72.295349,56.331142,-114.024422,83.913498,17.161051,28.837151,33.980053,52.378658,50.294754,7.551179,37.092663,56.506466,32.878235,29.662489
493,0,-71.061607,150.030579,11.447248,-14.488411,72.331688,56.320957,-114.035271,83.912727,17.165411,28.843563,33.992355,52.409004,50.315128,7.534932,37.118027,56.529121,32.845203,29.663403
494,0,-71.074326,150.060303,11.437637,-14.494414,72.337677,56.337036,-114.032478,83.903893,17.175642,28.846508,34.007595,52.394169,50.295628,7.545568,37.106544,56.497009,32.862267,29.653490
495,0,-71.179657,150.062698,11.392847,-14.523905,72.358231,56.313530,-114.033592,83.913269,17.158894,28.830307,34.026062,52.377132,50.274342,7.572545,37.077091,56.499737,32.907955,29.544020
496,0,-71.204727,150.109711,11.355581,-14.504965,72.365929,56.300995,-114.033760,83.904068,17.170555,28.843246,34.014374,52.361877,50.280170,7.546273,37.098129,56.485626,32.901966,29.634027
497,0,-71.170525,150.100204,11.351773,-14.498186,72.363625,56.288342,-114.015305,83.919342,17.114939,28.838247,34.006744,52.367558,50.292381,7.543670,37.099991,56.504734,32.911400,29.543921
498,0,-71.236191,150.084259,11.303036,-14.544816,72.361092,56.258884,-113.963875,83.734322,17.109310,28.790567,33.999355,52.357685,50.269493,7.569243,37.082504,56.502735,32.913113,29.562277
499,0,-71.226379,150.093460,11.284731,-14.549824,72.341125,56.239647,-114.044350,83.850174,17.053261,28.795965,33.989983,52.371189,50.272591,7.558432,37.094566,56.447945,32.890392,29.632132
500,0,-71.193871,150.062241,11.272498,-14.581176,72.326706,56.248074,-114.048996,83.851402,17.011580,28.769180,33.999008,52.365852,50.253948,7.536121,37.089111,56.446770,32.866989,29.645786
501,0,-71.215157,150.071518,11.247764,-14.598905,72.329353,56.248657,-114.029480,83.794029,16.983927,28.738096,33.984451,52.362022,50.273102,7.515792,37.102371,56.421268,32.861828,29.637253
502,0,-71.159744,150.056091,11.270695,-14.610658,72.341095,56.236141,-114.064896,83.782280,16.952627,28.717085,33.987400,52.338436,50.232147,7.551203,37.068707,56.392365,32.874893,29.635225
503,0,-71.309799,150.065918,11.211030,-14.648548,72.300591,56.224384,-114.064209,83.784859,16.948626,28.702478,33.985008,52.343784,50.240494,7.511264,37.096416,56.404251,32.899738,29.569443
504,0,-71.244057,150.038223,11.186785,-14.654048,72.315979,56.224125,-114.074173,83.794601,16.897665,28.697147,33.988781,52.338039,50.224815,7.530101,37.060673,56.409790,32.904018,29.573702
505,0,-71.243538,150.028717,11.155656,-14.640717,72.304314,56.212021,-114.055962,83.742950,16.824903,28.695971,33.983978,52.340427,50.200180,7.551588,37.066814,56.401363,32.864834,29.656242
506,0,-71.257401,150.037048,11.113860,-14.666813,72.334152,56.188225,-114.053780,83.746910,16.814903,28.690945,33.998524,52.324848,50.184322,7.556978,37.073246,56.363476,32.879799,29.648008
507,0,-71.267677,149.980438,11.024545,-14.709898,72.350342,56.162354,-114.055511,83.745224,16.817726,28.686411,34.017376,52.324200,50.168438,7.580999,37.047157,56.374096,32.944370,29.542423
508,0,-71.262604,149.961090,10.951501,-14.668344,72.376801,56.121555,-114.033180,83.686440,16.748919,28.687086,34.013653,52.327049,50.193661,7.570148,37.032665,56.363266,32.884480,29.615820
509,0,-71.250565,149.936295,10.867665,-14.695240,72.359695,56.129124,-114.053284,83.747017,16.630474,28.685335,34.008659,52.307144,50.202438,7.551294,37.060120,56.403633,32.906139,29.532129
510,0,-71.242935,149.908386,10.845187,-14.720438,72.354042,56.093552,-114.073792,83.736610,16.562119,28.667192,34.007206,52.333496,50.210587,7.548557,37.080692,56.379055,32.878208,29.641872
511,0,-71.237473,149.905426,10.775341,-14.725014,72.320175,56.082119,-114.086700,83.752525,16.501108,28.671844,33.989895,52.330017,50.220001,7.530868,37.101734,56.368694,32.877808,29.670605
512,0,-71.234886,149.887634,10.709160,-14.742355,72.317513,56.060135,-114.070854,83.708939,16.416519,28.645044,33.966251,52.314854,50.162601,7.564693,37.039860,56.366047,32.879776,29.667179
513,0,-71.233856,149.868881,10.665276,-14.758512,72.283020,56.046158,-114.104988,83.684044,16.401899,28.635918,33.978302,52.295345,49.783092,7.920875,37.009758,56.332455,32.856651,29.655046
514,0,-71.231186,149.853333,10.631668,-14.810887,72.284607,56.010674,-114.089333,83.639648,16.318838,28.588896,33.967628,52.269573,49.805481,7.875333,37.037041,56.350380,32.851574,29.664825
515,0,-71.230537,149.833893,10.583531,-14.815636,72.263504,56.017700,-114.184555,83.805557,16.271738,28.568523,33.945473,52.272373,50.133839,7.521345,37.081032,56.330460,32.853321,29.670900
516,0,-71.253105,149.860153,10.573732,-14.842274,72.287758,55.973679,-114.183563,83.804253,16.273209,28.547100,33.975376,52.269581,49.731785,7.912646,37.016121,56.297169,32.867020,29.677790
517,0,-71.266441,149.857147,10.549528,-14.846287,72.308296,55.988297,-114.101151,83.699310,16.309834,28.521353,33.983952,52.261745,49.699455,7.915852,37.007652,56.278149,32.870651,29.669722
518,0,-71.247574,149.930481,10.543843,-14.832564,72.290024,55.967220,-114.101440,83.711624,16.290270,28.523394,33.980705,52.264202,49.679295,7.923194,36.999332,56.257008,32.876553,29.701746
519,0,-71.254318,149.928757,10.500586,-14.820846,72.320564,55.953671,-114.118736,83.768173,16.287971,28.529955,33.979176,52.248116,49.722366,7.914047,37.007404,56.290154,32.872513,29.687172
520,0,-71.216743,149.917664,10.493565,-14.826465,72.342293,55.941845,-114.087334,83.809052,16.274729,28.544113,33.978565,52.246750,49.754642,7.902403,37.040451,56.296783,32.857841,29.691236
521,0,-71.137337,149.950592,10.461369,-14.813201,72.352936,55.957760,-114.096489,83.879181,16.224806,28.535856,34.002968,52.255196,49.739315,7.910506,37.025131,56.314663,32.851398,29.692177
522,0,-71.151169,149.964005,10.389284,-14.806644,72.366882,55.920670,-114.101227,83.880386,16.183025,28.556089,34.016758,52.239109,49.722363,7.929136,37.002544,56.344666,32.821434,29.665352
523,0,-71.112869,149.973969,10.331390,-14.812482,72.384636,55.898220,-114.014496,83.787224,16.200319,28.546450,34.024826,52.246716,49.710155,7.942190,37.017204,56.315620,32.834858,29.686998
524,0,-71.112267,149.952621,10.297017,-14.789196,72.363815,55.922798,-114.021530,83.811661,16.095259,28.557398,34.019199,52.236931,49.748501,7.928602,37.018372,56.343426,32.819672,29.690308
525,0,-71.071213,149.939774,10.291193,-14.793260,72.367935,55.915604,-114.021469,83.821991,16.078115,28.584366,34.015583,52.255844,49.743847,7.939200,37.038357,56.354729,32.809578,29.721699
526,0,-71.081894,149.916245,10.241050,-14.802821,72.344780,55.921116,-114.016792,83.831932,16.038609,28.600386,34.012573,52.256367,50.159534,7.524535,37.084740,56.351421,32.798550,29.708742
527,0,-71.050697,149.919891,10.228830,-14.790470,72.338661,55.926437,-114.025009,83.846779,15.972428,28.566143,34.002934,52.246735,49.817085,7.853280,37.037552,56.373974,32.783333,29.744326
528,0,-71.024200,149.918854,10.188962,-14.806314,72.320534,55.911068,-114.025703,83.841522,15.979465,28.551153,33.964359,52.277451,49.816376,7.864064,37.043144,56.370895,32.789219,29.732203
529,0,-71.036430,149.916824,10.147844,-14.813137,72.337997,55.882801,-114.009117,83.864731,15.918941,28.549351,33.979210,52.259983,49.783508,7.868993,37.034924,56.381428,32.784889,29.731533
530,0,-71.037163,149.906326,10.124834,-14.833833,72.326195,55.871605,-114.052353,83.835899,15.936300,28.553911,33.982983,52.248356,49.795715,7.889816,37.032818,56.349361,32.801796,29.735575
531,0,-71.016373,149.941269,10.083479,-14.831450,72.323944,55.864719,-114.058014,83.920273,15.825231,28.549234,33.985603,52.241600,50.138481,7.526516,37.058636,56.335155,32.769814,29.752264
532,0,-71.044495,149.963501,10.103961,-14.830644,72.323448,55.864254,-114.046555,83.859818,15.831778,28.549202,33.978733,52.259270,49.794914,7.876994,37.026600,56.358917,32.791386,29.729008
533,0,-71.016335,149.915237,10.046474,-14.836411,72.341721,55.854565,-114.056725,83.926369,15.814990,28.546186,33.995945,52.246677,50.134689,7.519863,37.081135,56.337543,32.803677,29.736338
534,0,-71.035179,149.915771,10.020584,-14.852653,72.390144,55.836857,-113.957977,83.829521,15.811901,28.553841,34.000355,52.226688,49.759010,7.885030,37.022888,56.368618,32.791607,29.719460
535,0,-71.005577,149.955185,9.993065,-14.846135,72.370857,55.816887,-113.964569,83.844376,15.746156,28.552103,34.008827,52.212776,49.735317,7.910425,37.009808,56.342403,32.829967,29.696882
536,0,-70.991280,149.948273,9.937579,-14.826404,72.405502,55.804955,-113.964622,83.841110,15.751541,28.555256,34.047592,52.209835,49.794708,7.906750,37.024723,56.340698,32.823105,29.710129
537,0,-71.012939,150.027237,9.937253,-14.819915,72.373238,55.789330,-113.963333,83.853172,15.732070,28.557192,34.047455,52.209618,50.123409,7.562480,37.054005,56.410767,32.846729,29.612425
538,0,-71.027115,150.013489,9.902359,-14.818266,72.392586,55.776058,-113.947701,83.864914,15.687637,28.555780,34.040314,52.217476,50.107597,7.564354,37.042271,56.371540,32.835068,29.686302
539,0,-71.017540,149.998337,9.847563,-14.904194,72.427094,55.756508,-113.955887,83.881790,15.620020,28.536175,34.039398,52.184891,49.715302,7.954266,37.000633,56.362270,32.853603,29.687918
540,0,-71.042061,149.982086,9.815323,-14.897264,72.405045,55.736656,-113.938332,83.836723,15.537058,28.479067,34.052635,52.154854,49.713699,7.925197,37.001801,56.337147,32.858521,29.675570
541,0,-71.042427,149.973724,9.785664,-14.928478,72.405647,55.719723,-114.056381,83.932587,15.463462,28.460938,34.002998,52.167587,49.675819,7.932551,37.009079,56.327423,32.861427,29.684633
542,0,-71.037560,149.962509,9.770547,-14.978226,72.356956,55.706257,-114.049675,83.876060,15.424326,28.443888,34.034870,52.168297,49.686077,7.916389,37.027374,56.297539,32.890564,29.690870
543,0,-71.059258,149.917343,9.682411,-14.997395,72.357971,55.699532,-114.028831,83.873734,15.397017,28.443085,34.033909,52.168545,49.660183,7.944092,36.987144,56.318035,32.874214,29.693611
544,0,-71.110031,149.983612,9.643583,-15.007551,72.345573,55.662777,-114.059639,83.795479,15.341012,28.417295,34.061390,52.139362,49.610313,7.965171,36.976887,56.280083,32.898212,29.687399
545,0,-71.090279,149.962357,9.638004,-15.025055,72.354660,55.639969,-114.057541,83.796013,15.339896,28.388895,34.040432,52.144447,49.627090,7.960214,36.993149,56.282642,32.892307,29.685118
546,0,-71.116928,149.956924,9.636705,-15.033298,72.329483,55.641285,-114.041954,83.799042,15.305663,28.387909,34.041374,52.141754,49.634178,7.954693,37.010525,56.284897,32.888233,29.708088
547,0,-71.158287,149.914062,9.609927,-15.073009,72.353004,55.639061,-114.116501,83.849007,15.268313,28.377073,34.044712,52.157902,49.605015,7.977905,36.996166,56.274166,32.887371,29.689299
548,0,-71.132034,149.912552,9.614169,-15.080154,72.316864,55.659840,-114.107681,83.782791,15.246173,28.368752,34.017357,52.152122,49.576176,7.954891,37.008614,56.233173,32.881500,29.728474
549,0,-71.133270,149.928787,9.627540,-15.096701,72.344482,55.629997,-114.139023,83.753136,15.238886,28.361958,33.972858,52.158718,49.607021,7.922553,37.013271,56.213615,32.851810,29.721643
550,0,-71.189079,149.907669,9.640499,-15.118515,72.308014,55.642178,-114.139778,83.752762,15.239708,28.328426,33.978985,52.157967,49.501282,7.970537,36.989765,56.181370,32.859196,29.734808
551,0,-71.194107,149.904449,9.654533,-15.124125,72.320145,55.658035,-114.124771,83.686699,15.255579,28.347784,33.978840,52.155407,49.537159,7.959948,37.003155,56.192600,32.801842,29.762972
552,0,-71.164055,149.879807,9.627795,-15.090116,72.297508,55.675186,-114.124893,83.688454,15.253190,28.357464,33.992962,52.154968,49.615406,7.952726,37.015976,56.252934,32.804207,29.752481
553,0,-71.203239,149.862228,9.615915,-15.111403,72.328751,55.663601,-114.125572,83.686020,15.256810,28.393364,34.002701,52.167973,49.631584,7.928970,37.033669,56.214237,32.808895,29.770388
554,0,-71.187202,149.845276,9.590217,-15.097978,72.328552,55.669193,-114.125679,83.688065,15.253984,28.415049,34.005314,52.186890,49.610619,7.975066,37.007786,56.268623,32.816536,29.753838
555,0,-71.190247,149.852997,9.615491,-15.056086,72.312500,55.692646,-114.127365,83.687782,15.254920,28.403072,34.012684,52.161381,49.587276,7.987479,37.012165,56.237743,32.824860,29.762405
556,0,-71.175644,149.855194,9.647258,-15.037035,72.284859,55.691463,-114.031525,83.575172,15.338929,28.427963,34.004379,52.168327,49.623135,7.974205,37.026905,56.218555,32.830410,29.783915
557,0,-71.188164,149.838867,9.647264,-15.037522,72.303436,55.679371,-114.045738,83.586143,15.286564,28.410648,34.024437,52.162937,49.605225,7.981012,37.017906,56.266544,32.819153,29.758629
558,0,-71.176109,149.853882,9.666208,-15.055776,72.317329,55.665707,-114.137848,83.681244,15.293977,28.391003,34.022949,52.167820,49.634377,7.957340,37.028816,56.273907,32.815937,29.783527
559,0,-71.186768,149.859848,9.680519,-15.065947,72.270554,55.676201,-114.138313,83.668716,15.314164,28.384012,34.020905,52.167664,49.612282,7.985978,37.005611,56.244198,32.837471,29.777302
560,0,-71.217316,149.807083,9.644334,-15.119807,72.303375,55.662582,-114.113182,83.620491,15.273430,28.361790,33.989552,52.138569,49.610943,7.960540,37.012157,56.229153,32.852638,29.736490
561,0,-71.231148,149.858795,9.675091,-15.139822,72.263542,55.667805,-114.114822,83.618683,15.276329,28.344353,33.968365,52.164761,49.557213,7.983358,37.011784,56.223763,32.845268,29.755791
562,0,-71.244980,149.870956,9.688548,-15.144499,72.270416,55.663319,-114.192108,83.719315,15.242044,28.306890,33.967274,52.149094,49.533016,8.005219,36.996727,56.187687,32.856243,29.768431
563,0,-71.237656,149.875870,9.683358,-15.168552,72.277023,55.661442,-114.192314,83.721367,15.239528,28.300282,33.971886,52.142849,49.554230,8.019364,36.990158,56.180225,32.872726,29.771460
564,0,-71.272995,149.850098,9.658833,-15.153764,72.270393,55.659016,-114.193802,83.715179,15.247914,28.307858,33.968891,52.146370,49.481472,7.992537,36.991405,56.153545,32.863026,29.774841
565,0,-71.261734,149.858017,9.662573,-15.156272,72.279877,55.646847,-114.202812,83.730003,15.232185,28.258989,34.006542,52.136738,49.448963,8.008493,36.978455,56.127449,32.880291,29.749107
566,0,-71.273140,149.859451,9.639956,-15.166155,72.274612,55.657341,-114.239738,83.674507,15.290747,28.242388,34.003983,52.116821,49.468639,7.992638,37.011375,56.126286,32.881374,29.717739
567,0,-71.267647,149.866302,9.686096,-15.167254,72.258728,55.635841,-114.204620,83.701530,15.301807,28.238400,33.991589,52.102592,49.465900,8.003953,36.993954,56.110947,32.865139,29.735706
568,0,-71.289284,149.854889,9.673133,-15.170140,72.279922,55.652000,-114.233803,83.610107,15.307487,28.266171,33.963665,52.132664,49.454182,8.007478,36.993538,56.126862,32.873627,29.741688
569,0,-71.240906,149.867493,9.698527,-15.153143,72.277138,55.653038,-114.214432,83.706932,15.296652,28.286369,33.979977,52.137169,49.470436,7.998309,36.997879,56.113480,32.886024,29.728121
570,0,-71.254456,149.848831,9.683728,-15.149044,72.272224,55.658337,-114.232910,83.688133,15.243356,28.278807,33.975765,52.139923,49.513737,7.961347,37.042530,56.117420,32.866837,29.740250
571,0,-71.254456,149.859207,9.659933,-15.131814,72.255890,55.671093,-114.186378,83.647987,15.267532,28.297340,33.968616,52.144882,49.508121,7.984375,37.012722,56.127350,32.881496,29.733629
572,0,-71.243126,149.836395,9.648459,-15.138785,72.262306,55.661213,-114.176224,83.637680,15.276836,28.299471,33.975597,52.137241,49.486717,7.998291,36.988937,56.159863,32.871098,29.717819
573,0,-71.264084,149.849670,9.670485,-15.138642,72.263222,55.660503,-114.226822,83.691338,15.233866,28.303690,33.976757,52.140144,49.508320,7.994006,36.992039,56.163574,32.866074,29.709377
574,0,-71.280563,149.865112,9.660130,-15.131055,72.274414,55.675671,-114.202812,83.730003,15.232185,28.306017,33.975491,52.139046,49.474148,8.023234,36.980225,56.136269,32.877045,29.756512
575,0,-71.265579,149.829071,9.637890,-15.135346,72.259270,55.678616,-114.113991,83.619759,15.274663,28.321983,33.969635,52.143509,49.497032,7.983620,37.011963,56.185707,32.872398,29.696791
576,0,-71.236145,149.834564,9.666939,-15.131531,72.258469,55.670654,-114.099815,83.539406,15.309677,28.324362,33.968166,52.145329,49.522636,7.978573,36.998672,56.198711,32.867428,29.707644
577,0,-71.238571,149.838943,9.668018,-15.130640,72.247528,55.682991,-114.113037,83.618324,15.276274,28.323610,33.961292,52.152714,49.507034,7.988149,37.006332,56.209362,32.879639,29.714035
578,0,-71.241463,149.835388,9.697180,-15.143402,72.249008,55.682091,-114.099678,83.537239,15.312505,28.318235,33.969532,52.160530,49.460728,7.982752,36.980541,56.142193,32.879715,29.725742
579,0,-71.296425,149.859436,9.635474,-15.148307,72.246765,55.691944,-114.097931,83.538948,15.309661,28.308239,33.975582,52.140400,49.504509,7.956613,37.004765,56.175228,32.861275,29.707842
580,0,-71.259705,149.831207,9.654769,-15.130041,72.248634,55.681488,-114.095886,83.536308,15.312484,28.314608,33.959511,52.158978,49.524391,7.946713,37.019394,56.148849,32.862980,29.753672
581,0,-71.230476,149.864944,9.688007,-15.142090,72.251808,55.677814,-114.117882,83.623413,15.230865,28.296190,33.959682,52.142334,49.501076,7.940392,37.006641,56.176685,32.862141,29.698137
582,0,-71.283730,149.871719,9.658230,-15.144107,72.251358,55.682064,-114.176979,83.634888,15.280637,28.296144,33.956364,52.145943,49.483971,7.965852,37.002457,56.145206,32.875019,29.697222
583,0,-71.273224,149.856522,9.669857,-15.146601,72.259705,55.670486,-114.096916,83.537491,15.311264,28.279804,33.954773,52.144192,49.496178,7.970254,37.004608,56.113136,32.884293,29.709860
584,0,-71.269630,149.862030,9.639474,-15.159161,72.230011,55.681835,-114.175217,83.638672,15.275208,28.285435,33.940666,52.143803,49.518467,7.960572,37.016220,56.155823,32.860176,29.698523
585,0,-71.303322,149.855530,9.657246,-15.129340,72.221786,55.685818,-114.223022,83.624992,15.214293,28.298241,33.914848,52.141079,49.557133,7.933498,37.031395,56.150494,32.845810,29.686262
586,0,-71.279495,149.864517,9.687931,-15.130459,72.224564,55.683521,-114.225525,83.622459,15.218657,28.301289,33.919247,52.164349,49.522888,7.956758,37.009708,56.146702,32.845425,29.689260
587,0,-71.256561,149.858200,9.684398,-15.134941,72.226044,55.694408,-114.211380,83.610115,15.270377,28.299484,33.924534,52.160408,49.539803,7.947996,37.014961,56.111084,32.840965,29.685724
588,0,-71.276718,149.846695,9.655961,-15.136502,72.220428,55.695648,-114.211479,83.612076,15.267583,28.307711,33.960304,52.157600,49.539333,7.938352,37.036777,56.099133,32.841190,29.661869
589,0,-71.295563,149.838409,9.668961,-15.134459,72.224792,55.695362,-114.224594,83.621414,15.219927,28.306240,33.960056,52.156776,49.547630,7.935737,37.024574,56.099613,32.825188,29.643814
590,0,-71.267036,149.858124,9.659134,-15.113240,72.231140,55.682320,-114.223663,83.620354,15.221201,28.313126,33.942562,52.161247,49.576557,7.915135,37.038605,56.080288,32.805847,29.663534
591,0,-71.330185,149.861526,9.653588,-15.126967,72.232330,55.684349,-114.222931,83.622986,15.217154,28.296616,33.947742,52.159134,49.515022,7.942109,37.005821,56.043095,32.800907,29.660009
592,0,-71.306976,149.817200,9.636216,-15.124187,72.233040,55.678825,-114.224586,83.621674,15.219545,28.309025,33.943562,52.160339,49.552155,7.938178,37.026886,55.995461,32.802620,29.664530
593,0,-71.302414,149.815399,9.608192,-15.132867,72.230865,55.656025,-114.199699,83.570572,15.180567,28.300179,33.950359,52.140331,49.517326,7.947098,37.005253,55.981594,32.791637,29.644909
594,0,-71.335213,149.805008,9.613937,-15.156390,72.232536,55.651833,-114.197762,83.570061,15.180431,28.284561,33.974426,52.142673,49.499908,7.967679,36.985962,55.973831,32.794048,29.626036
595,0,-71.378578,149.808914,9.576462,-15.195223,72.205215,55.640373,-114.197601,83.568138,15.182954,28.257763,33.943420,52.133778,49.526321,7.941160,37.016453,55.971588,32.794250,29.619188
596,0,-71.339882,149.800278,9.601016,-15.191296,72.218719,55.626316,-114.223640,83.486343,15.134476,28.237715,33.971237,52.134022,49.505745,7.950663,37.016571,55.935219,32.810875,29.605970
597,0,-71.369881,149.778702,9.584200,-15.224384,72.216728,55.630367,-114.306007,83.578506,15.116278,28.227575,33.972271,52.130173,49.504807,7.978417,36.992645,55.913132,32.805450,29.582499
598,0,-71.388809,149.780518,9.599969,-15.235368,72.209274,55.634808,-114.308426,83.564507,15.203009,28.209400,33.970978,52.129845,49.453442,8.004064,36.991158,55.853977,32.829567,29.553747
599,0,-71.394028,149.777649,9.598777,-15.245483,72.206337,55.655704,-114.310356,83.567268,15.199911,28.209375,33.965973,52.136608,49.920906,7.544930,37.047714,55.870167,32.835094,29.578077
600,0,-71.434143,149.831589,9.651549,-15.235952,72.181679,55.664059,-114.316750,83.569214,15.161285,28.214617,33.975796,52.099792,49.495983,7.944454,36.983765,55.835102,32.837502,29.549923
601,0,-71.392235,149.798981,9.626026,-15.225828,72.218002,55.630096,-114.309349,83.566124,15.201118,28.202080,33.979565,52.113747,49.471725,7.956280,36.975796,55.828999,32.840332,29.531004
602,0,-71.415466,149.874420,9.601732,-15.241580,72.267120,55.629707,-114.323669,83.638008,15.177743,28.199995,33.990490,52.125622,49.481968,7.954968,36.986473,55.812420,32.876911,29.568502
603,0,-71.426361,149.883774,9.600498,-15.252857,72.251114,55.649044,-114.325348,83.636650,15.180504,28.186167,33.988319,52.088772,49.702209,7.705102,37.007298,55.784595,32.886265,29.554171
604,0,-71.399094,149.889374,9.636010,-15.241357,72.228004,55.614811,-114.337463,83.648300,15.128571,28.188034,33.983887,52.093601,49.444733,7.960510,36.974644,55.781284,32.848854,29.579487
605,0,-71.408775,149.875946,9.612553,-15.264695,72.249596,55.627415,-114.329483,83.650642,15.120765,28.183025,33.986027,52.089527,49.705448,7.696151,36.998581,55.776905,32.818737,29.540527
606,0,-71.392654,149.869400,9.586028,-15.258983,72.255768,55.645893,-114.318520,83.659935,15.075353,28.165325,34.013458,52.090504,49.464588,7.961591,36.982887,55.773640,32.821507,29.560619
607,0,-71.416031,149.871155,9.574781,-15.259563,72.263588,55.630344,-114.324295,83.664978,15.070485,28.185066,33.993252,52.080906,49.475555,7.952707,36.982983,55.784286,32.818249,29.544680
608,0,-71.410637,149.861450,9.535413,-15.256550,72.263718,55.624302,-114.317513,83.658768,15.076592,28.173483,33.991417,52.087288,49.494423,7.945744,36.982586,55.776394,32.817196,29.554276
609,0,-71.396156,149.855789,9.537222,-15.243874,72.270042,55.620129,-114.318230,83.656410,15.080363,28.213747,34.000134,52.112774,49.499641,7.942788,36.995926,55.788395,32.817822,29.557304
610,0,-71.419495,149.846222,9.558229,-15.212859,72.305511,55.663391,-114.318504,83.668320,15.060327,28.228252,34.027702,52.129078,49.523579,7.981655,36.987041,55.829563,32.803806,29.555855
611,0,-71.416771,149.838089,9.545613,-15.204560,72.279778,55.642467,-114.222832,83.486961,15.133242,28.252996,34.021763,52.136879,49.556286,7.973104,37.011864,55.848965,32.830761,29.536373
612,0,-71.413986,149.817505,9.506563,-15.189000,72.246292,55.645885,-114.223801,83.496338,15.117467,28.254959,34.021114,52.136108,49.580280,7.938648,37.031937,55.858799,32.818882,29.549192
613,0,-71.422447,149.816605,9.479813,-15.203188,72.242867,55.620342,-114.221947,83.494484,15.119431,28.257887,34.021427,52.137104,49.520939,7.981307,37.008976,55.853039,32.840389,29.551786
614,0,-71.424889,149.834412,9.504992,-15.237865,72.235786,55.625114,-114.316040,83.607826,15.033583,28.257818,34.010525,52.122208,49.524422,7.984918,37.022694,55.879154,32.873920,29.567675
615,0,-71.435425,149.827698,9.475791,-15.226495,72.254066,55.615116,-114.300835,83.534775,15.058369,28.255741,34.011257,52.120369,49.532398,7.998121,37.008099,55.882206,32.876862,29.554390
616,0,-71.440132,149.812897,9.461778,-15.236347,72.225594,55.602638,-114.336685,83.511612,15.045523,28.212852,34.001347,52.109974,49.475700,8.011225,37.004505,55.874340,32.925331,29.531322
617,0,-71.468513,149.841995,9.445873,-15.263940,72.222702,55.580509,-114.335114,83.519722,15.030804,28.188282,33.995178,52.097206,49.906559,7.578285,37.036121,55.912907,32.936207,29.535229
618,0,-71.482521,149.795029,9.436845,-15.276171,72.252388,55.578392,-114.308434,83.458641,15.006626,28.186989,34.003979,52.087013,49.791153,7.693100,37.025120,55.926193,32.972565,29.520918
619,0,-71.449043,149.777664,9.438354,-15.266615,72.241829,55.602291,-114.313705,83.446060,15.054170,28.183083,34.032265,52.103916,49.894428,7.606594,37.036530,55.964191,33.026222,29.523758
620,0,-71.483856,149.810486,9.424034,-15.270143,72.247940,55.578106,-114.309143,83.456223,15.010382,28.190409,34.037724,52.070339,49.512154,7.993199,37.000130,55.978230,33.070148,29.506638
621,0,-71.513084,149.816010,9.390525,-15.304775,72.255241,55.557911,-114.301117,83.450439,15.014508,28.167562,34.053642,52.083061,49.522018,8.003972,36.988754,56.010380,33.111275,29.495840
622,0,-71.519508,149.766449,9.320421,-15.293203,72.255623,55.555073,-114.298721,83.390022,14.988736,28.170357,34.052879,52.085037,49.485840,8.007414,36.983768,56.041214,33.113400,29.489401
623,0,-71.490234,149.750595,9.330207,-15.285826,72.264130,55.570122,-114.313194,83.472252,14.947501,28.190172,34.029263,52.080471,49.479603,8.011156,36.978077,56.090538,33.149986,29.478382
624,0,-71.537170,149.747009,9.307410,-15.310895,72.268158,55.540649,-114.300529,83.396721,14.976470,28.191692,34.036026,52.071682,49.463078,8.034410,36.964897,56.065475,33.198914,29.456898
625,0,-71.531860,149.764908,9.340269,-15.324001,72.281181,55.534435,-114.379944,83.491165,14.948586,28.175146,34.049217,52.062492,49.475113,8.036135,36.976788,56.112587,33.208061,29.462944
626,0,-71.532959,149.769287,9.341253,-15.281435,72.254776,55.533791,-114.300270,83.392555,14.982113,28.236979,34.042381,52.072266,49.764832,7.733800,36.995274,56.111095,33.235878,29.446144
627,0,-71.531281,149.739944,9.314262,-15.289201,72.268318,55.530251,-114.301552,83.411957,14.956483,28.236355,34.058010,52.053036,49.492279,8.032456,36.958828,56.143005,33.256996,29.432308
628,0,-71.550201,149.686111,9.295078,-15.300843,72.279419,55.545727,-114.297821,83.383896,15.063593,28.233282,34.052505,52.058575,49.517242,8.018279,36.983990,56.165615,33.248238,29.442665
