Trajectories
100
,,sano:Uln,,,sano:MPH3,,,sano:Rad,,,sano:PIP3,,,sano:DIP3,,,sano:DIP4,,,
Frame,Sub Frame,X,Y,Z,X,Y,Z,X,Y,Z,X,Y,Z,X,Y,Z,X,Y,Z
,,mm,mm,mm,mm,mm,mm,mm,mm,mm,mm,mm,mm,mm,mm,mm,mm,mm,mm
1,0,-82.288513,152.882858,0.582167,-29.953337,78.186516,55.209732,-123.419456,86.069496,4.378237,11.777127,35.209217,49.490620,29.573040,7.483969,32.829605,40.255177,33.205063,28.947342
2,0,-82.282227,152.893784,0.533066,-29.945387,78.214630,55.196903,-123.438438,86.118698,4.325664,11.803602,35.221237,49.493740,29.597605,7.484349,32.833817,40.274296,33.208691,28.946417
3,0,-82.285423,152.882523,0.509219,-29.954098,78.227478,55.176117,-123.438438,86.118698,4.325664,11.810404,35.235085,49.507610,29.583284,7.491975,32.825211,40.274120,33.211128,28.937603
4,0,-82.225655,152.907410,0.542435,-29.951178,78.219597,55.189072,-123.422684,86.156487,4.278539,11.808708,35.248959,49.482723,29.616745,7.477622,32.833019,40.271172,33.217018,28.926905
5,0,-82.268967,152.935181,0.534297,-29.927092,78.217857,55.194603,-123.372185,86.216110,4.308156,11.808401,35.252010,49.488705,29.597792,7.493861,32.811451,40.260937,33.243038,28.930847
6,0,-82.236473,152.934082,0.535468,-29.925579,78.220528,55.192215,-123.393135,86.265129,4.256339,11.793396,35.243801,49.468140,29.628643,7.471210,32.836697,40.265259,33.253456,28.928665
7,0,-82.215981,152.931412,0.523067,-29.925772,78.217972,55.191658,-123.394928,86.263870,4.257221,11.807705,35.246105,49.497314,29.623377,7.486335,32.840359,40.260326,33.231865,28.932709
8,0,-82.228615,152.938766,0.548494,-29.945883,78.223625,55.184292,-123.396400,86.266922,4.256712,11.788322,35.219646,49.477741,29.593836,7.488820,32.831097,40.258320,33.247864,28.940107
9,0,-82.216293,152.932098,0.521540,-29.941151,78.239304,55.158794,-123.397911,86.267349,4.257001,11.784958,35.236103,49.484787,29.621162,7.467745,32.861179,40.231979,33.269768,28.948786
10,0,-82.216133,152.932953,0.521863,-29.955362,78.242180,55.157131,-123.397369,86.268372,4.256537,11.765777,35.219631,49.478760,29.620956,7.484107,32.838219,40.242683,33.273064,28.949055
11,0,-82.215752,152.933594,0.522252,-29.928871,78.214073,55.158688,-123.398468,86.268860,4.256695,11.787704,35.218361,49.481586,29.622702,7.484742,32.837948,40.233532,33.281166,28.940592
12,0,-82.228577,152.940720,0.546853,-29.933775,78.256088,55.137306,-123.400154,86.264542,4.258479,11.780982,35.229412,49.474804,29.636471,7.471467,32.849430,40.247795,33.261642,28.940718
13,0,-82.197266,152.920090,0.556041,-29.942688,78.240906,55.163898,-123.415283,86.233612,4.303274,11.761375,35.236382,49.458473,29.616020,7.490899,32.823597,40.230892,33.314999,28.934137
14,0,-82.243896,152.935959,0.517238,-29.926283,78.246536,55.165527,-123.401443,86.183456,4.355383,11.797640,35.243782,49.478027,29.637508,7.473744,32.855835,40.244854,33.270016,28.947449
15,0,-82.228561,152.941391,0.546455,-29.917591,78.229874,55.182690,-123.400597,86.180122,4.356319,11.803824,35.240841,49.471981,29.605110,7.484693,32.835461,40.259308,33.281715,28.954779
16,0,-82.233894,152.947617,0.558781,-29.911535,78.231758,55.173260,-123.400139,86.178444,4.356781,11.799366,35.206673,49.473320,29.657143,7.464177,32.858707,40.260529,33.283306,28.933163
17,0,-82.229103,152.939407,0.546878,-29.916191,78.228378,55.184250,-123.398895,86.182457,4.355363,11.792937,35.249489,49.477432,29.611483,7.493996,32.837513,40.238781,33.291473,28.940458
18,0,-82.205711,152.954102,0.525124,-29.920835,78.238342,55.180485,-123.398003,86.179153,4.356278,11.791519,35.225777,49.480129,29.607220,7.484766,32.838566,40.265488,33.277027,28.959606
19,0,-82.157394,152.938522,0.558765,-29.922644,78.238251,55.154713,-123.400871,86.185493,4.354673,11.796655,35.239330,49.486000,29.614998,7.482858,32.851517,40.273209,33.271664,28.954716
20,0,-82.197289,152.918213,0.507979,-29.917599,78.235580,55.157341,-123.401276,86.273918,4.255924,11.793463,35.241608,49.482819,29.615440,7.483433,32.846752,40.242233,33.306767,28.950306
21,0,-82.206467,152.914047,0.492726,-29.924734,78.230469,55.167740,-123.401276,86.273918,4.255924,11.785165,35.255829,49.486664,29.586994,7.487011,32.841358,40.235447,33.313484,28.942253
22,0,-82.206276,152.913788,0.495130,-29.940388,78.235283,55.141083,-123.404945,86.267296,4.258973,11.783164,35.213634,49.484844,29.616766,7.464330,32.852219,40.235970,33.299095,28.949272
23,0,-82.216766,152.858627,0.504337,-29.943897,78.220299,55.132446,-123.437263,86.160172,4.282127,11.762286,35.222122,49.479717,29.601912,7.463266,32.864529,40.253990,33.275818,28.957264
24,0,-82.276688,152.878510,0.492770,-29.979227,78.174744,55.152256,-123.438217,86.159889,4.282532,11.763804,35.215687,49.475502,29.555731,7.464391,32.842152,40.201450,33.269302,28.960712
25,0,-82.283020,152.884857,0.505319,-30.008686,78.188194,55.159904,-123.491661,86.112366,4.332693,11.735449,35.216488,49.489311,29.580271,7.444908,32.857166,40.203102,33.269787,28.956732
26,0,-82.278313,152.895874,0.558012,-30.016396,78.171654,55.157822,-123.491463,86.116135,4.331577,11.727595,35.191349,49.502132,29.528120,7.468770,32.833256,40.186550,33.271526,28.980921
27,0,-82.277809,152.896194,0.558679,-30.000614,78.158646,55.170399,-123.523811,86.239388,4.304565,11.736863,35.194279,49.494522,29.552130,7.439806,32.860321,40.175171,33.268337,28.983646
28,0,-82.284065,152.932541,0.602249,-30.005653,78.173157,55.146160,-123.521255,86.236732,4.304854,11.714281,35.212620,49.483021,29.570494,7.447864,32.863789,40.154701,33.272644,28.980152
29,0,-82.265343,152.933395,0.564695,-30.016230,78.185783,55.159130,-123.518806,86.235710,4.304657,11.722664,35.207378,49.482090,29.563082,7.447102,32.865135,40.164070,33.278618,28.967909
30,0,-82.288170,152.926788,0.552438,-30.008595,78.194550,55.141811,-123.530708,86.237419,4.306624,11.704333,35.237064,49.468277,29.567240,7.451627,32.853863,40.152573,33.288498,28.967670
31,0,-82.252327,152.925613,0.565578,-29.995237,78.205284,55.163277,-123.532341,86.231583,4.308789,11.749731,35.228107,49.492355,29.518858,7.472472,32.840431,40.165905,33.284039,28.979927
32,0,-82.284523,152.915283,0.512394,-29.994234,78.224686,55.159214,-123.534416,86.231010,4.309406,11.749308,35.231224,49.488529,29.613209,7.429040,32.872868,40.199001,33.268826,28.970959
33,0,-82.250145,152.908112,0.504091,-30.007292,78.203003,55.129013,-123.505028,86.255928,4.264372,11.749686,35.238312,49.475395,29.609707,7.436492,32.862900,40.183918,33.276505,28.946070
34,0,-82.285286,152.874481,0.480506,-30.006441,78.203384,55.129772,-123.507187,86.263794,4.262067,11.741182,35.231079,49.479977,29.576830,7.456480,32.849022,40.195683,33.266975,28.951662
35,0,-82.286034,152.874542,0.480663,-29.994646,78.209183,55.124512,-123.474266,86.150917,4.285014,11.763331,35.221886,49.478626,29.606567,7.449148,32.851810,40.199902,33.275417,28.958416
36,0,-82.248055,152.878036,0.496022,-29.993694,78.217094,55.139992,-123.476517,86.150314,4.285862,11.762565,35.215744,49.486328,29.590551,7.449349,32.853725,40.196724,33.274754,28.966419
37,0,-82.289742,152.885162,0.518416,-29.996367,78.209862,55.152103,-123.487213,86.111801,4.331778,11.768127,35.187817,49.490150,29.596121,7.444273,32.855728,40.212406,33.267838,28.960949
38,0,-82.290169,152.884277,0.521002,-29.996351,78.157349,55.149582,-123.482964,86.116631,4.329402,11.773417,35.185581,49.499832,29.617981,7.456661,32.849998,40.182560,33.274277,28.960495
39,0,-82.306259,152.868835,0.531031,-30.008793,78.203148,55.159203,-123.495361,86.109314,4.334445,11.749631,35.193737,49.493225,29.580187,7.449088,32.845814,40.198860,33.283844,28.959751
40,0,-82.305664,152.870499,0.530549,-29.990910,78.215599,55.143574,-123.502113,86.109245,4.336091,11.775043,35.200806,49.472588,29.570728,7.455212,32.841274,40.176006,33.288986,28.968311
41,0,-82.292847,152.863617,0.503055,-29.956106,78.215828,55.174183,-123.500443,86.111641,4.335002,11.754951,35.195347,49.484932,29.593176,7.454721,32.860416,40.187454,33.280277,28.959482
42,0,-82.292404,152.863647,0.504064,-29.968981,78.203743,55.150810,-123.498360,86.112244,4.334333,11.758533,35.191917,49.490646,29.581202,7.478309,32.843521,40.185902,33.276104,28.975510
43,0,-82.293449,152.865494,0.502926,-30.007668,78.219658,55.164986,-123.502594,86.111076,4.335682,11.756874,35.242817,49.469078,29.568106,7.456151,32.845982,40.199276,33.275673,28.971447
44,0,-82.330315,152.860168,0.489920,-30.006521,78.218666,55.165710,-123.490433,86.116425,4.331247,11.740489,35.252033,49.460453,29.567797,7.488880,32.849495,40.162560,33.288063,28.943911
45,0,-82.314095,152.847961,0.450486,-30.015602,78.202530,55.139088,-123.520172,86.009079,4.353449,11.736877,35.239372,49.471500,29.552891,7.492873,32.828926,40.174084,33.287422,28.950434
46,0,-82.323074,152.820633,0.471826,-30.016123,78.182236,55.126209,-123.516846,86.001183,4.317913,11.706000,35.248623,49.447002,29.567209,7.476956,32.844936,40.138668,33.310265,28.943653
47,0,-82.314606,152.793823,0.457044,-30.017548,78.192810,55.117104,-123.589020,86.027618,4.277556,11.700579,35.232826,49.458569,29.538839,7.483571,32.834194,40.157822,33.278790,28.955288
48,0,-82.395462,152.812302,0.396284,-30.113844,78.197182,55.106556,-123.591415,86.036873,4.275598,11.648716,35.223701,49.444271,29.531391,7.494189,32.834473,40.113445,33.288097,28.923649
49,0,-82.362038,152.791687,0.406144,-30.128119,78.187431,55.101109,-123.589981,86.031281,4.276791,11.646238,35.190670,49.443481,29.506817,7.449182,32.822201,40.081409,33.296768,28.942316
50,0,-82.391563,152.778458,0.435075,-30.129236,78.187241,55.099873,-123.557144,86.095192,4.217695,11.642945,35.181225,49.453606,29.486132,7.441203,32.827641,40.111275,33.266582,28.955635
51,0,-82.357544,152.785416,0.393702,-30.129559,78.188339,55.097794,-123.558342,86.091095,4.219285,11.629240,35.206081,49.446781,29.511297,7.451644,32.833454,40.086819,33.275726,28.948029
52,0,-82.357971,152.785812,0.392622,-30.129644,78.197571,55.086918,-123.569321,86.092789,4.221438,11.652354,35.220798,49.447105,29.475159,7.453697,32.817188,40.106697,33.283157,28.950394
53,0,-82.358070,152.785019,0.392873,-30.111574,78.175644,55.107212,-123.600456,86.214714,4.194025,11.647662,35.225334,49.442436,29.471052,7.478498,32.813198,40.115322,33.280724,28.946665
54,0,-82.357338,152.785370,0.392391,-30.111692,78.187965,55.100708,-123.624771,86.157669,4.249205,11.651999,35.221336,49.448414,29.495676,7.464159,32.810410,40.114063,33.283588,28.936354
55,0,-82.327919,152.785187,0.394080,-30.079433,78.173576,55.105686,-123.623367,86.156258,4.249374,11.673513,35.227146,49.441803,29.496628,7.483560,32.795868,40.116539,33.280773,28.949820
56,0,-82.315819,152.808655,0.397325,-30.068821,78.191154,55.108921,-123.574059,86.171753,4.241935,11.690250,35.243271,49.440453,29.525963,7.461174,32.823406,40.141136,33.296005,28.938570
57,0,-82.308121,152.811752,0.410177,-30.016491,78.192116,55.124355,-123.574059,86.171753,4.241935,11.718148,35.265087,49.431881,29.570580,7.453890,32.841175,40.155872,33.292747,28.946184
58,0,-82.308281,152.810822,0.410576,-30.016066,78.192535,55.124649,-123.576218,86.172760,4.242094,11.720978,35.244305,49.445824,29.617168,7.443994,32.859749,40.154900,33.304272,28.945969
59,0,-82.290916,152.826416,0.400832,-29.994743,78.213257,55.100082,-123.493362,86.192780,4.198921,11.732184,35.243725,49.475990,29.577042,7.464286,32.825077,40.223316,33.276943,28.953316
60,0,-82.247719,152.833389,0.367986,-29.994989,78.212601,55.102779,-123.494637,86.188652,4.200401,11.755284,35.249046,49.449520,29.587648,7.456333,32.836124,40.208210,33.274536,28.946007
61,0,-82.263268,152.870621,0.401843,-29.994810,78.214943,55.102913,-123.453148,86.204605,4.194039,11.763474,35.237183,49.465473,29.599564,7.448166,32.849674,40.205696,33.286224,28.939398
62,0,-82.225319,152.834610,0.384558,-30.007490,78.226471,55.072037,-123.450592,86.205345,4.193127,11.743021,35.245785,49.466713,29.569374,7.447269,32.839020,40.210548,33.280201,28.948910
63,0,-82.234337,152.830154,0.370630,-30.000330,78.228676,55.081852,-123.493942,86.188919,4.200151,11.720384,35.244652,49.446697,29.586584,7.463842,32.836372,40.195469,33.278900,28.944630
64,0,-82.221169,152.823975,0.347550,-30.007221,78.229095,55.068573,-123.497383,86.189812,4.200730,11.727401,35.262112,49.443020,29.571999,7.456805,32.823406,40.207024,33.292343,28.932255
65,0,-82.220932,152.848907,0.315241,-29.998781,78.206932,55.070496,-123.498886,86.191284,4.200675,11.730625,35.253826,49.438198,29.615950,7.435972,32.851540,40.198410,33.272713,28.946560
66,0,-82.221519,152.847885,0.313922,-30.010801,78.219582,55.049717,-123.515503,86.243164,4.149163,11.727152,35.255947,49.441326,29.533504,7.473801,32.817047,40.186584,33.279816,28.951885
67,0,-82.250633,152.847885,0.312510,-30.026506,78.229111,55.046173,-123.493759,86.192795,4.199011,11.728368,35.255634,49.438862,29.552984,7.455746,32.826885,40.170635,33.290180,28.941458
68,0,-82.215973,152.841385,0.302249,-30.012398,78.221855,55.042652,-123.491760,86.289436,4.059420,11.715604,35.269310,49.421959,29.533899,7.469071,32.819504,40.185368,33.284893,28.945637
69,0,-82.232712,152.837021,0.276475,-30.010607,78.223305,55.043545,-123.494888,86.284843,4.061475,11.710875,35.265717,49.422642,29.550550,7.470854,32.807354,40.179111,33.279076,28.949739
70,0,-82.231934,152.837021,0.278563,-30.023716,78.235466,55.035145,-123.497864,86.284088,4.062399,11.712803,35.266479,49.423576,29.536041,7.479911,32.827900,40.181015,33.275837,28.949982
71,0,-82.240669,152.833328,0.264820,-30.023825,78.243568,55.034847,-123.499458,86.285667,4.062315,11.710602,35.258156,49.439274,29.549105,7.469783,32.813530,40.180698,33.281536,28.936171
72,0,-82.208954,152.815399,0.252127,-30.007431,78.212700,55.018822,-123.496628,86.288162,4.060924,11.701980,35.256306,49.414864,29.526310,7.496189,32.807987,40.173660,33.285839,28.933451
73,0,-82.229652,152.820694,0.261735,-30.006096,78.209846,55.020672,-123.499306,86.289497,4.061162,11.708920,35.267010,49.430531,29.528515,7.495272,32.812756,40.161415,33.280720,28.935999
74,0,-82.238251,152.802505,0.258831,-30.029829,78.231155,55.015125,-123.498787,86.287636,4.061585,11.708871,35.259056,49.440079,29.562634,7.487000,32.818928,40.173424,33.293510,28.943949
75,0,-82.232857,152.795944,0.245228,-30.040972,78.218269,55.021061,-123.526817,86.177742,4.083869,11.706976,35.267395,49.428547,29.516060,7.467368,32.801506,40.166630,33.292328,28.939371
76,0,-82.268532,152.802933,0.254957,-30.026670,78.224846,55.011417,-123.531319,86.178665,4.084849,11.705339,35.263935,49.432232,29.532150,7.464092,32.826656,40.166183,33.291012,28.929712
77,0,-82.222252,152.789169,0.218439,-30.039059,78.258308,55.011818,-123.529114,86.177460,4.084607,11.711066,35.275288,49.415459,29.576399,7.464678,32.822475,40.165680,33.289864,28.928156
78,0,-82.255211,152.791397,0.189827,-30.045918,78.206673,54.994045,-123.527489,86.183014,4.082412,11.713915,35.268604,49.423500,29.547649,7.473258,32.821335,40.194069,33.288013,28.944967
79,0,-82.259598,152.764832,0.237719,-30.066381,78.237976,55.011395,-123.530869,86.177048,4.085230,11.711907,35.257492,49.439217,29.586523,7.462709,32.820980,40.183193,33.286877,28.938105
80,0,-82.233490,152.765808,0.203304,-30.031479,78.232315,55.000488,-123.530296,86.178902,4.084493,11.703683,35.261162,49.437031,29.529436,7.476190,32.799084,40.179325,33.286922,28.931108
81,0,-82.223022,152.759842,0.176594,-30.079128,78.242065,54.996689,-123.513992,86.210320,4.000517,11.712713,35.267078,49.424511,29.552446,7.459556,32.814308,40.193321,33.273834,28.949076
82,0,-82.257896,152.748138,0.158704,-30.079519,78.214844,55.009312,-123.509186,86.211578,3.999148,11.697412,35.243004,49.427044,29.547638,7.467966,32.814491,40.161041,33.289009,28.941307
83,0,-82.255310,152.747421,0.158849,-30.095699,78.219208,54.986000,-123.512276,86.207268,4.001348,11.685196,35.223267,49.428837,29.530003,7.458472,32.826111,40.169479,33.284607,28.933088
84,0,-82.290947,152.727005,0.185001,-30.082428,78.230461,54.996876,-123.544380,86.229210,4.032764,11.678489,35.249771,49.428993,29.544962,7.479088,32.826908,40.175980,33.279720,28.952435
85,0,-82.264923,152.726120,0.181272,-30.064167,78.224724,55.017361,-123.523476,86.176666,4.046427,11.703144,35.251030,49.418957,29.569973,7.478198,32.836147,40.143826,33.315804,28.942907
86,0,-82.297470,152.744278,0.150703,-30.107059,78.219414,54.989868,-123.525902,86.177956,4.046329,11.707821,35.266930,49.421547,29.511347,7.492511,32.803894,40.123352,33.312683,28.937620
87,0,-82.297920,152.744217,0.150852,-30.109758,78.215660,54.993099,-123.541824,86.224167,3.996654,11.682122,35.252316,49.416767,29.546886,7.486634,32.818146,40.127762,33.324116,28.939930
88,0,-82.280991,152.721741,0.155087,-30.115442,78.236778,54.991154,-123.544785,86.228661,3.996185,11.695813,35.246487,49.429501,29.515705,7.507465,32.802822,40.135433,33.312523,28.946430
89,0,-82.307182,152.739594,0.136234,-30.120062,78.226242,54.977848,-123.530800,86.265167,3.948312,11.657053,35.232380,49.439308,29.532660,7.491969,32.817463,40.119511,33.319038,28.952227
90,0,-82.273903,152.776398,0.123350,-30.120455,78.225784,54.975655,-123.497345,86.140007,3.976045,11.636317,35.268093,49.422596,29.506218,7.500813,32.818165,40.112957,33.321327,28.933182
91,0,-82.256958,152.723145,0.099761,-30.104845,78.216629,54.980450,-123.500130,86.143250,3.975953,11.657137,35.251060,49.410099,29.514151,7.490334,32.799747,40.120358,33.333912,28.925278
92,0,-82.288780,152.741302,0.095154,-30.120022,78.236015,54.962849,-123.502335,86.142921,3.976713,11.647761,35.250698,49.414448,29.505035,7.504919,32.796879,40.108212,33.325005,28.935637
93,0,-82.260040,152.768433,0.122001,-30.121405,78.236710,54.963627,-123.502380,86.138908,3.977889,11.650910,35.230110,49.422035,29.517679,7.500113,32.814102,40.125511,33.298920,28.931959
94,0,-82.259796,152.768768,0.120543,-30.129787,78.218414,54.981560,-123.533066,86.266647,3.948481,11.624660,35.263596,49.420860,29.526970,7.483574,32.831055,40.145248,33.287388,28.958981
95,0,-82.246689,152.714905,0.122053,-30.117401,78.223892,54.978909,-123.499016,86.143349,3.975584,11.676477,35.264416,49.418674,29.508703,7.505902,32.810890,40.149868,33.298683,28.952242
96,0,-82.226570,152.733704,0.066877,-30.116590,78.229027,54.975227,-123.516876,86.177681,3.929226,11.659677,35.292183,49.416172,29.523918,7.497910,32.832012,40.118633,33.330070,28.942173
97,0,-82.260841,152.783310,0.064232,-30.130672,78.235336,54.958672,-123.496628,86.130440,3.978559,11.673678,35.266369,49.425610,29.548580,7.492287,32.825027,40.127037,33.312595,28.939451
98,0,-82.279213,152.753220,0.069798,-30.115568,78.239571,54.946896,-123.501175,86.125717,3.981308,11.657250,35.290630,49.418610,29.510511,7.506043,32.806732,40.135895,33.313480,28.940567
99,0,-82.231369,152.780273,0.068572,-30.093706,78.235825,54.948330,-123.487633,86.151787,3.938559,11.653818,35.279053,49.407261,29.517239,7.504311,32.793369,40.129707,33.315201,28.947138
100,0,-82.272690,152.770187,0.027634,-30.110289,78.230148,54.959454,-123.503059,86.196823,3.849856,11.663910,35.297001,49.404774,29.548830,7.496682,32.806293,40.115582,33.327919,28.926458
101,0,-82.271484,152.777512,0.049820,-30.140530,78.250397,54.941582,-123.490387,86.130150,3.976721,11.632532,35.263283,49.395832,29.522539,7.496757,32.816246,40.121529,33.323898,28.936075
102,0,-82.273125,152.788208,0.091312,-30.128040,78.242279,54.951874,-123.499069,86.136223,3.940049,11.619837,35.277809,49.407654,29.496357,7.500445,32.820992,40.121609,33.326252,28.937031
103,0,-82.258614,152.751007,0.057990,-30.135576,78.223190,54.963089,-123.516937,86.171974,3.893483,11.654138,35.252995,49.404705,29.480341,7.498055,32.816238,40.119247,33.300766,28.942791
104,0,-82.259331,152.750702,0.058164,-30.167221,78.197906,54.969109,-123.586922,86.281479,3.871212,11.623431,35.262966,49.395775,29.491655,7.503489,32.812508,40.094547,33.299557,28.950651
105,0,-82.279251,152.725998,0.042032,-30.180202,78.209450,54.937534,-123.587967,86.034737,3.925348,11.623915,35.264599,49.394703,29.477793,7.495546,32.804611,40.114536,33.289680,28.935257
106,0,-82.276558,152.747833,0.034070,-30.175570,78.208015,54.924217,-123.625130,86.164444,3.898018,11.615733,35.269203,49.421425,29.507975,7.505056,32.798630,40.094284,33.301456,28.934021
107,0,-82.249756,152.736465,-0.013441,-30.184999,78.214249,54.916023,-123.550270,86.056572,3.918622,11.629438,35.270084,49.417095,29.475090,7.503555,32.801651,40.088409,33.308399,28.923124
108,0,-82.275932,152.729797,-0.028729,-30.184872,78.217361,54.914433,-123.548439,86.057076,3.917922,11.614103,35.265419,49.390839,29.515469,7.491779,32.804249,40.103771,33.294670,28.939548
109,0,-82.284012,152.726044,-0.040131,-30.199076,78.224228,54.906322,-123.588844,86.036835,3.888005,11.620658,35.273075,49.380737,29.525221,7.487766,32.817276,40.084663,33.319946,28.928833
110,0,-82.274651,152.709671,-0.092696,-30.191540,78.224419,54.903645,-123.572426,86.071495,3.841335,11.596351,35.286572,49.377312,29.477982,7.499105,32.795109,40.062222,33.308235,28.926079
111,0,-82.288300,152.717270,-0.093488,-30.189034,78.219772,54.905777,-123.574928,86.068741,3.842678,11.600262,35.247894,49.394249,29.462927,7.503748,32.792084,40.073311,33.298237,28.932436
112,0,-82.263123,152.707092,-0.119866,-30.234150,78.183601,54.872185,-123.590584,86.119125,3.790436,11.582431,35.263680,49.357212,29.433538,7.491451,32.780228,40.072193,33.298603,28.921410
113,0,-82.264091,152.706070,-0.119401,-30.238310,78.192978,54.858795,-123.589897,86.125206,3.788664,11.567013,35.256817,49.347717,29.451710,7.482245,32.788548,40.071400,33.295040,28.927429
114,0,-82.273018,152.702698,-0.132909,-30.231846,78.196564,54.884212,-123.621422,86.017273,3.811245,11.549331,35.246094,49.358963,29.430424,7.477095,32.779034,40.050446,33.312756,28.927542
115,0,-82.291573,152.699417,-0.085339,-30.246637,78.175102,54.886784,-123.626083,86.014320,3.813585,11.542094,35.243816,49.366909,29.409058,7.487721,32.791424,40.033947,33.301945,28.943111
116,0,-82.291977,152.699600,-0.084624,-30.226963,78.174431,54.877460,-123.624046,86.014862,3.812774,11.543261,35.243542,49.366947,29.431004,7.486859,32.798103,40.040318,33.272972,28.964245
117,0,-82.282837,152.752258,-0.076478,-30.264984,78.210808,54.875206,-123.655823,86.138222,3.785543,11.528397,35.239017,49.349888,29.424902,7.485309,32.787601,39.976986,33.298717,28.937275
118,0,-82.295349,152.753693,-0.047478,-30.254614,78.207008,54.866249,-123.655296,86.138359,3.785340,11.529361,35.271561,49.344887,29.380186,7.517364,32.776024,39.977654,33.303230,28.936697
119,0,-82.295570,152.753571,-0.048495,-30.250092,78.208664,54.892303,-123.635368,86.219749,3.843064,11.519551,35.289215,49.351906,29.376490,7.525769,32.774052,39.954472,33.329700,28.929710
120,0,-82.293709,152.790161,-0.056759,-30.275246,78.270790,54.880608,-123.640167,86.209419,3.810304,11.516345,35.294853,49.344925,29.356663,7.525803,32.775330,39.960823,33.329456,28.935417
121,0,-82.274940,152.804031,-0.066722,-30.256285,78.269890,54.855053,-123.625069,86.256699,3.797334,11.538411,35.290745,49.333675,29.368793,7.531535,32.753914,39.981941,33.324974,28.931410
122,0,-82.274170,152.825363,-0.098298,-30.256113,78.273224,54.849403,-123.626282,86.252800,3.798909,11.515141,35.320644,49.325844,29.363560,7.544661,32.776302,39.966064,33.326859,28.935820
123,0,-82.268082,152.818039,-0.110844,-30.239182,78.272911,54.848186,-123.627098,86.241592,3.764919,11.518552,35.320190,49.327541,29.359964,7.566193,32.770592,39.942841,33.337303,28.928640
124,0,-82.210205,152.841171,-0.169896,-30.231256,78.289764,54.824341,-123.624763,86.247780,3.762563,11.517488,35.320263,49.327206,29.359955,7.552377,32.760284,39.966633,33.343662,28.934134
125,0,-82.205391,152.834274,-0.184000,-30.263445,78.297653,54.816166,-123.607773,86.282608,3.715675,11.502118,35.323078,49.327206,29.346500,7.564378,32.748177,39.989204,33.347073,28.946941
126,0,-82.208130,152.821472,-0.206810,-30.243542,78.270096,54.781422,-123.576653,86.147552,3.709356,11.535307,35.297546,49.325375,29.433874,7.499382,32.805340,39.996498,33.327389,28.944693
127,0,-82.185753,152.838745,-0.230885,-30.191511,78.270012,54.789890,-123.558098,86.209824,3.653721,11.537098,35.284004,49.342731,29.389494,7.524940,32.777130,40.046028,33.299454,28.957798
128,0,-82.194466,152.810913,-0.274539,-30.247662,78.283623,54.789124,-123.547234,86.207306,3.582824,11.542233,35.294975,49.330990,29.415756,7.527281,32.765385,40.018440,33.318615,28.945576
129,0,-82.178185,152.800934,-0.249292,-30.239346,78.277031,54.758163,-123.546631,86.209267,3.582081,11.536163,35.295807,49.329178,29.429525,7.514235,32.790382,40.037239,33.331074,28.934883
130,0,-82.156807,152.801849,-0.307220,-30.198051,78.305534,54.780003,-123.518784,86.334824,3.553786,11.540638,35.299000,49.327648,29.413233,7.544889,32.783436,40.021164,33.337685,28.938181
131,0,-82.165733,152.796066,-0.323676,-30.187092,78.291191,54.781643,-123.552795,86.228249,3.577485,11.562134,35.331512,49.331223,29.460886,7.528030,32.786346,40.046310,33.326912,28.922348
132,0,-82.184456,152.789001,-0.301824,-30.180000,78.309082,54.775631,-123.546631,86.209267,3.582081,11.586463,35.326183,49.330021,29.472296,7.528559,32.794765,40.053589,33.328465,28.923923
133,0,-82.198074,152.767700,-0.335741,-30.193268,78.311783,54.785599,-123.516960,86.097633,3.605494,11.566466,35.335724,49.333172,29.460920,7.528240,32.788708,40.064575,33.330551,28.931936
134,0,-82.166367,152.791550,-0.343314,-30.202930,78.329773,54.756222,-123.515472,86.096245,3.605516,11.566217,35.334354,49.323471,29.459803,7.524897,32.782646,40.063801,33.335110,28.930691
135,0,-82.203964,152.747360,-0.424984,-30.200306,78.320335,54.770798,-123.516960,86.097633,3.605494,11.590067,35.322891,49.314415,29.455545,7.532160,32.779079,40.080528,33.323792,28.936970
136,0,-82.201019,152.771439,-0.431322,-30.223036,78.293907,54.750401,-123.518333,86.093216,3.607104,11.582911,35.333694,49.331436,29.433817,7.568363,32.760983,40.046612,33.335106,28.922058
137,0,-82.226044,152.727417,-0.432038,-30.242060,78.292061,54.755051,-123.532280,86.126373,3.557305,11.551753,35.330029,49.325710,29.476242,7.519637,32.809780,40.058334,33.329304,28.938152
138,0,-82.198364,152.739883,-0.438749,-30.241774,78.294952,54.744938,-123.514381,86.157455,3.476355,11.534795,35.335678,49.309917,29.417784,7.563939,32.780567,40.035282,33.332691,28.946709
139,0,-82.235138,152.722244,-0.444886,-30.243765,78.284172,54.729958,-123.500671,86.120651,3.526248,11.539049,35.297131,49.327599,29.411486,7.565259,32.773453,40.008213,33.356972,28.917877
140,0,-82.241478,152.736588,-0.480631,-30.272459,78.318665,54.702106,-123.585884,86.035370,3.505987,11.526052,35.311161,49.299618,29.374788,7.570829,32.746849,40.016289,33.357197,28.918594
141,0,-82.268829,152.722153,-0.446583,-30.287775,78.310760,54.735054,-123.586761,86.038841,3.505142,11.501860,35.328686,49.311749,29.401005,7.556886,32.768261,40.014088,33.333580,28.913885
142,0,-82.314186,152.710083,-0.436353,-30.275185,78.317169,54.736542,-123.585854,86.035484,3.505942,11.502905,35.334660,49.310310,29.404049,7.543997,32.762520,39.969963,33.328632,28.917007
143,0,-82.287361,152.707443,-0.439113,-30.285954,78.293518,54.755711,-123.587265,86.040451,3.504776,11.507300,35.316975,49.301918,29.411240,7.544771,32.785686,39.979683,33.318829,28.935013
144,0,-82.251823,152.705551,-0.435399,-30.278372,78.294594,54.722336,-123.586349,86.037056,3.505588,11.509424,35.357162,49.283131,29.394287,7.548079,32.773613,39.996349,33.347736,28.925154
145,0,-82.300659,152.702560,-0.461602,-30.269518,78.300575,54.751186,-123.600151,85.998512,3.550383,11.542816,35.294491,49.308678,29.365925,7.563580,32.745857,39.973660,33.333054,28.937614
146,0,-82.240585,152.728363,-0.432560,-30.276688,78.290131,54.721684,-123.585884,86.035370,3.505987,11.517059,35.329865,49.312283,29.408615,7.538865,32.789906,39.987347,33.323280,28.935608
147,0,-82.247009,152.728546,-0.421078,-30.252441,78.276337,54.734406,-123.603065,85.995300,3.551886,11.528171,35.330471,49.305061,29.386084,7.559107,32.768486,39.993153,33.325752,28.932755
148,0,-82.210503,152.765366,-0.445145,-30.251045,78.284241,54.713917,-123.586639,86.033089,3.506889,11.522112,35.337685,49.316780,29.415745,7.564929,32.780994,40.010429,33.341099,28.941702
149,0,-82.225372,152.760620,-0.467699,-30.267036,78.310028,54.716953,-123.556046,86.139671,3.483695,11.540447,35.375965,49.328449,29.402418,7.573577,32.778759,40.019699,33.341389,28.943695
150,0,-82.206902,152.745407,-0.481738,-30.250719,78.296478,54.701275,-123.516525,86.156624,3.477150,11.547014,35.364075,49.301399,29.428141,7.564630,32.775753,40.016830,33.335651,28.941889
151,0,-82.220123,152.725601,-0.515077,-30.250652,78.288979,54.711624,-123.515869,86.158714,3.476389,11.552892,35.330051,49.291344,29.401436,7.559960,32.774555,40.009064,33.342476,28.922482
152,0,-82.191200,152.751053,-0.461055,-30.241201,78.287430,54.728146,-123.514778,86.159195,3.475971,11.529481,35.322903,49.292572,29.409842,7.572793,32.773403,40.010284,33.356026,28.923229
153,0,-82.170303,152.745117,-0.480270,-30.240194,78.289398,54.689766,-123.515205,86.160820,3.475627,11.549826,35.317783,49.308002,29.422098,7.563191,32.789597,40.025688,33.346100,28.947403
154,0,-82.194550,152.750580,-0.489131,-30.244946,78.286346,54.701252,-123.515343,86.151550,3.478258,11.542261,35.341839,49.313141,29.451488,7.525931,32.805122,40.030987,33.335678,28.957060
155,0,-82.188965,152.744339,-0.499381,-30.250835,78.295189,54.689358,-123.514877,86.150116,3.441435,11.514481,35.376411,49.288322,29.380440,7.550685,32.761505,40.050938,33.333061,28.948877
156,0,-82.203758,152.738846,-0.521946,-30.242901,78.288933,54.674751,-123.501549,86.184456,3.398237,11.511227,35.328075,49.285263,29.432892,7.563676,32.775024,40.016254,33.341824,28.934555
157,0,-82.140533,152.749863,-0.508241,-30.233997,78.293076,54.658604,-123.499626,86.187378,3.396930,11.506886,35.351204,49.291809,29.390450,7.551037,32.749580,40.031223,33.344452,28.948435
158,0,-82.160492,152.762939,-0.540883,-30.239100,78.290314,54.667809,-123.521759,86.226288,3.347134,11.501007,35.346985,49.278122,29.394636,7.542620,32.767376,40.003796,33.345181,28.940432
159,0,-82.147362,152.784958,-0.536905,-30.251989,78.305008,54.656826,-123.518951,86.235023,3.343934,11.489418,35.369095,49.286377,29.424135,7.555534,32.785824,40.004868,33.350266,28.924992
160,0,-82.128365,152.795197,-0.555046,-30.242891,78.303848,54.642773,-123.504860,86.182144,3.399551,11.509283,35.363274,49.303188,29.402727,7.582444,32.767185,39.998722,33.346329,28.941505
161,0,-82.109161,152.758438,-0.515359,-30.242392,78.304451,54.644310,-123.523857,86.244263,3.342584,11.546621,35.376217,49.314117,29.398046,7.571294,32.779652,40.022179,33.334869,28.956656
162,0,-82.117607,152.766403,-0.530905,-30.229876,78.289268,54.669395,-123.506126,86.187149,3.398017,11.553710,35.360687,49.291321,29.424192,7.563163,32.778378,40.042763,33.332867,28.961624
163,0,-82.112831,152.800323,-0.507172,-30.234741,78.315544,54.653576,-123.504181,86.179314,3.400426,11.529719,35.395306,49.264874,29.423361,7.568187,32.765865,40.044773,33.335606,28.936365
164,0,-82.070366,152.773819,-0.525283,-30.181173,78.345329,54.661781,-123.474342,86.280540,3.378575,11.597773,35.352333,49.291019,29.456347,7.568012,32.787548,40.080822,33.339684,28.949022
165,0,-82.039856,152.792603,-0.543502,-30.182440,78.354225,54.656002,-123.432434,86.301849,3.370262,11.602083,35.366924,49.302448,29.471991,7.562687,32.785027,40.080044,33.363724,28.931858
166,0,-82.072159,152.793671,-0.544819,-30.173141,78.342278,54.655071,-123.400665,86.170280,3.398361,11.621339,35.369240,49.291843,29.469307,7.579586,32.784107,40.097755,33.342052,28.936049
167,0,-82.045975,152.781906,-0.595333,-30.178511,78.346039,54.661514,-123.399712,86.176460,3.396390,11.602705,35.370586,49.298401,29.503418,7.581378,32.791756,40.088379,33.355614,28.921003
168,0,-82.034004,152.786026,-0.555766,-30.163273,78.350914,54.648571,-123.401436,86.167854,3.399207,11.622040,35.367535,49.294151,29.504799,7.583068,32.784634,40.105984,33.352303,28.915617
169,0,-82.034348,152.785965,-0.556028,-30.168974,78.328644,54.655945,-123.402397,86.171074,3.398461,11.651050,35.366920,49.280651,29.498753,7.555349,32.761829,40.120434,33.347672,28.913773
170,0,-82.036247,152.786758,-0.582117,-30.167452,78.328766,54.659981,-123.397331,86.183861,3.393802,11.664251,35.383938,49.289932,29.548037,7.541659,32.802605,40.124950,33.359886,28.926105
171,0,-82.064293,152.756561,-0.561471,-30.158016,78.339020,54.663597,-123.402008,86.175385,3.397138,11.647836,35.381672,49.313259,29.557402,7.557659,32.790283,40.113663,33.359489,28.927885
172,0,-82.031380,152.754944,-0.560540,-30.157333,78.328270,54.673389,-123.400665,86.170280,3.398361,11.669798,35.379784,49.297451,29.547018,7.533720,32.787251,40.142654,33.350159,28.935711
173,0,-82.043312,152.731552,-0.564281,-30.149496,78.338608,54.678272,-123.399895,86.172684,3.397520,11.679066,35.387131,49.315395,29.591316,7.528738,32.800156,40.140194,33.351227,28.926167
174,0,-82.080414,152.733948,-0.594193,-30.147568,78.338318,54.678028,-123.398415,86.183456,3.394117,11.695794,35.390373,49.315620,29.581383,7.550864,32.775265,40.145763,33.330952,28.922358
175,0,-82.054436,152.729279,-0.605375,-30.148949,78.339668,54.677143,-123.412315,86.118668,3.371280,11.677694,35.402752,49.300343,29.610477,7.525804,32.802544,40.150356,33.327755,28.930939
176,0,-82.051239,152.728271,-0.576755,-30.127039,78.333305,54.698624,-123.368507,86.046555,3.424166,11.680080,35.402157,49.296013,29.578415,7.567720,32.792011,40.192341,33.334923,28.938519
177,0,-82.046700,152.721436,-0.589910,-30.140348,78.366203,54.678749,-123.326424,86.067757,3.415853,11.685581,35.403042,49.298695,29.645189,7.547657,32.820271,40.168049,33.373390,28.931555
178,0,-82.046356,152.691681,-0.621328,-30.128662,78.353340,54.690056,-123.307724,86.116104,3.367702,11.698728,35.412544,49.300865,29.607462,7.571696,32.799019,40.172729,33.358120,28.932800
179,0,-82.055923,152.708847,-0.647412,-30.105150,78.343681,54.674355,-123.306023,86.109734,3.331800,11.728648,35.414001,49.313198,29.635574,7.546779,32.795033,40.185871,33.358120,28.916876
180,0,-82.075989,152.693741,-0.597814,-30.103464,78.351997,54.691891,-123.306969,86.118439,3.366774,11.730139,35.391563,49.295849,29.662121,7.538633,32.824333,40.199608,33.331459,28.923649
181,0,-82.030960,152.684921,-0.620477,-30.108587,78.341652,54.703819,-123.306808,86.112953,3.368403,11.742659,35.412441,49.312481,29.669205,7.549942,32.824821,40.211777,33.330009,28.941101
182,0,-82.079674,152.693161,-0.625850,-30.094460,78.368233,54.697842,-123.308121,86.117867,3.367273,11.765989,35.390663,49.313133,29.650236,7.552961,32.814648,40.205326,33.347389,28.917665
183,0,-82.079758,152.693008,-0.624711,-30.092485,78.369804,54.696198,-123.306969,86.118439,3.366774,11.752726,35.414623,49.312820,29.638926,7.555130,32.798492,40.212784,33.335300,28.919920
184,0,-82.043884,152.690491,-0.595717,-30.090921,78.352066,54.704144,-123.308395,86.113991,3.368539,11.790890,35.404888,49.316467,29.661329,7.541193,32.803864,40.231945,33.353848,28.914270
185,0,-82.044579,152.688812,-0.596029,-30.093248,78.361938,54.718163,-123.304794,86.119255,3.365909,11.783761,35.396603,49.301178,29.659300,7.557061,32.785099,40.212177,33.339123,28.931065
186,0,-82.051826,152.697678,-0.609750,-30.078814,78.366356,54.697262,-123.307014,86.118324,3.366819,11.758705,35.389565,49.319099,29.687847,7.527789,32.822472,40.238098,33.352665,28.921070
187,0,-82.055283,152.738190,-0.613901,-30.077461,78.365875,54.686974,-123.304756,86.119362,3.365867,11.784286,35.394310,49.307484,29.639288,7.558743,32.788624,40.191303,33.391205,28.888937
188,0,-82.024277,152.738434,-0.638348,-30.068119,78.370232,54.674847,-123.305466,86.117165,3.366741,11.766501,35.397190,49.301498,29.637613,7.553739,32.782085,40.209461,33.363087,28.909754
189,0,-82.025276,152.737534,-0.639077,-30.070251,78.382210,54.688950,-123.311813,86.118256,3.368189,11.783329,35.389183,49.303886,29.670414,7.536292,32.808529,40.223984,33.370285,28.931360
190,0,-82.010986,152.734177,-0.637105,-30.086842,78.406815,54.688278,-123.308121,86.117867,3.367273,11.776450,35.388435,49.295074,29.667706,7.532779,32.811489,40.227558,33.348343,28.925831
191,0,-81.992935,152.741562,-0.656089,-30.099920,78.378807,54.666611,-123.308678,86.110367,3.331977,11.741057,35.401520,49.282757,29.651728,7.551486,32.785378,40.207672,33.359894,28.916138
192,0,-82.019402,152.729813,-0.649813,-30.100481,78.380196,54.666466,-123.339638,86.005409,3.354872,11.729629,35.420921,49.301777,29.651247,7.535815,32.804108,40.210575,33.348221,28.911489
193,0,-81.992477,152.741928,-0.655982,-30.095470,78.343979,54.649765,-123.305428,86.102722,3.333943,11.743049,35.391823,49.303997,29.636171,7.545823,32.776310,40.203979,33.355480,28.907900
194,0,-81.992668,152.742004,-0.656249,-30.140911,78.370964,54.635906,-123.296890,86.134323,3.292967,11.733501,35.400330,49.280613,29.649315,7.545504,32.792164,40.206528,33.344585,28.922361
195,0,-81.963005,152.728790,-0.679166,-30.133362,78.362282,54.635780,-123.296890,86.134323,3.292967,11.719147,35.418247,49.282452,29.632265,7.550447,32.789413,40.191265,33.356407,28.908337
196,0,-81.966606,152.729324,-0.708746,-30.146847,78.386414,54.605751,-123.295731,86.134865,3.292560,11.710049,35.390278,49.277813,29.635418,7.538918,32.795277,40.178886,33.362682,28.908344
197,0,-81.981499,152.706467,-0.772595,-30.147913,78.378174,54.611881,-123.346321,86.068367,3.227894,11.691233,35.413712,49.254818,29.609829,7.559775,32.773006,40.199978,33.350388,28.902010
198,0,-81.975838,152.699371,-0.784176,-30.126902,78.361717,54.572105,-123.346718,86.069832,3.227465,11.685710,35.442902,49.254810,29.602594,7.542120,32.783485,40.199421,33.346783,28.909008
199,0,-81.946182,152.687134,-0.808773,-30.167770,78.386597,54.561985,-123.330658,86.098618,3.148692,11.667495,35.414124,49.265469,29.599272,7.524688,32.782238,40.177494,33.351192,28.925262
200,0,-81.957932,152.684677,-0.828051,-30.178040,78.362717,54.521400,-123.332718,86.106194,3.145696,11.685941,35.431213,49.253429,29.613842,7.516593,32.781296,40.189281,33.347168,28.914206
201,0,-81.929306,152.676361,-0.873340,-30.198771,78.364006,54.522964,-123.336876,86.195580,3.047517,11.673313,35.416409,49.242828,29.555397,7.556931,32.761150,40.188915,33.351093,28.896997
202,0,-81.934128,152.679321,-0.900264,-30.204689,78.372307,54.507999,-123.304955,86.064339,3.037241,11.649793,35.419991,49.229645,29.581732,7.529422,32.773842,40.181339,33.343502,28.911945
203,0,-81.933662,152.679550,-0.902927,-30.218061,78.381302,54.494141,-123.336914,86.186470,3.012260,11.663239,35.409603,49.246181,29.563719,7.537206,32.754230,40.161034,33.361206,28.916908
204,0,-81.907303,152.675934,-0.904760,-30.190224,78.360207,54.519619,-123.303368,86.063286,3.037465,11.641473,35.385387,49.256741,29.563530,7.522960,32.771957,40.190083,33.345055,28.913424
205,0,-81.939079,152.671906,-0.887467,-30.190933,78.357971,54.519997,-123.337456,86.193008,3.009596,11.664663,35.404079,49.255444,29.576559,7.530980,32.773148,40.165508,33.343529,28.925592
206,0,-81.924309,152.691086,-0.868482,-30.202433,78.345268,54.521839,-123.350998,86.160446,3.090616,11.644145,35.413292,49.216583,29.569139,7.530860,32.770855,40.187595,33.349689,28.913794
207,0,-82.002502,152.680862,-0.845989,-30.201164,78.345848,54.522793,-123.393349,86.136429,3.099937,11.650283,35.403606,49.258186,29.589031,7.534668,32.774338,40.153698,33.360519,28.903786
208,0,-82.005531,152.661270,-0.834830,-30.186373,78.342194,54.529972,-123.392555,86.133125,3.100965,11.642502,35.388683,49.252937,29.584887,7.531315,32.775219,40.149166,33.356495,28.910236
209,0,-81.996475,152.672836,-0.801310,-30.189100,78.343132,54.540386,-123.373421,86.085403,3.153756,11.643188,35.381584,49.260696,29.588104,7.527466,32.776207,40.146378,33.333626,28.912783
210,0,-82.002373,152.710480,-0.761584,-30.179789,78.345238,54.556725,-123.388573,86.054008,3.195600,11.638886,35.407665,49.271156,29.596458,7.513135,32.800144,40.163822,33.334690,28.907475
211,0,-81.968781,152.708405,-0.760438,-30.182281,78.343010,54.565899,-123.345810,86.075363,3.225413,11.645000,35.420525,49.258671,29.551546,7.566177,32.765972,40.138855,33.353954,28.901657
212,0,-81.981819,152.705841,-0.772856,-30.192032,78.349289,54.564087,-123.388718,86.048050,3.235989,11.637230,35.425495,49.249199,29.537468,7.575726,32.746662,40.138470,33.366055,28.911123
213,0,-81.951546,152.733444,-0.764618,-30.176220,78.353714,54.571568,-123.315445,86.175148,3.203959,11.643271,35.413506,49.266323,29.608414,7.544582,32.796738,40.161961,33.334305,28.924564
214,0,-81.958611,152.731735,-0.778899,-30.171272,78.350540,54.553040,-123.356483,86.149979,3.213405,11.659116,35.394024,49.259308,29.577339,7.549626,32.779510,40.155655,33.333927,28.921305
215,0,-81.954430,152.724564,-0.791492,-30.169535,78.360619,54.561325,-123.356125,86.154457,3.211909,11.647050,35.417179,49.263065,29.556929,7.560861,32.772339,40.177311,33.349300,28.914385
216,0,-81.987946,152.725418,-0.792471,-30.186735,78.372475,54.538330,-123.313393,86.172646,3.204457,11.646808,35.414909,49.266621,29.567095,7.559333,32.777222,40.166031,33.356007,28.915564
217,0,-81.987686,152.725662,-0.791486,-30.170902,78.366165,54.540710,-123.299149,86.204041,3.125018,11.655488,35.438721,49.257141,29.582590,7.524064,32.789070,40.153057,33.365849,28.916094
218,0,-81.946022,152.687149,-0.809334,-30.180059,78.366165,54.523819,-123.329956,86.100769,3.147766,11.644949,35.414162,49.265800,29.605314,7.528646,32.771950,40.163963,33.366253,28.916279
219,0,-81.912582,152.685257,-0.807263,-30.171562,78.364601,54.540070,-123.330299,86.097008,3.149336,11.666035,35.424881,49.275131,29.593237,7.531062,32.779980,40.172031,33.360718,28.915726
220,0,-81.948608,152.687546,-0.835379,-30.179239,78.345482,54.526573,-123.331024,86.100235,3.148049,11.645389,35.422371,49.252621,29.599707,7.523825,32.795719,40.150032,33.372623,28.907207
221,0,-81.987328,152.696838,-0.826368,-30.215464,78.355095,54.526424,-123.390465,86.130394,3.101589,11.648182,35.410778,49.274330,29.545591,7.544755,32.770695,40.157154,33.352970,28.920586
222,0,-81.996559,152.672943,-0.801877,-30.188606,78.339783,54.530308,-123.394272,86.139427,3.099039,11.630440,35.391190,49.270851,29.571554,7.552553,32.772491,40.155853,33.340199,28.918394
223,0,-81.996246,152.671585,-0.801721,-30.227856,78.326927,54.526810,-123.387741,86.135551,3.099387,11.631175,35.398514,49.262054,29.571688,7.551186,32.782177,40.128262,33.344898,28.917616
224,0,-82.041603,152.672791,-0.757818,-30.245823,78.320351,54.539143,-123.387848,86.135994,3.099252,11.616899,35.390175,49.272484,29.525215,7.582606,32.752499,40.123619,33.334923,28.936932
225,0,-82.086441,152.651611,-0.762307,-30.262348,78.325897,54.544811,-123.435646,85.987167,3.168834,11.611970,35.388229,49.274319,29.560734,7.555592,32.789436,40.081158,33.351406,28.919783
226,0,-82.120842,152.648102,-0.765928,-30.253942,78.302727,54.544182,-123.433014,85.995277,3.165873,11.607954,35.411228,49.246269,29.527414,7.580901,32.785530,40.067722,33.358353,28.923559
227,0,-82.141617,152.620850,-0.781549,-30.290798,78.301056,54.555569,-123.434441,85.996414,3.165721,11.575946,35.399261,49.244213,29.475266,7.590447,32.752232,40.094574,33.350147,28.917521
228,0,-82.131767,152.626022,-0.769951,-30.299377,78.293396,54.534985,-123.456810,86.014999,3.128233,11.566920,35.367344,49.247349,29.490976,7.552847,32.773849,40.077766,33.331799,28.894283
229,0,-82.155579,152.616638,-0.804971,-30.323023,78.278267,54.530323,-123.469521,85.973541,3.173684,11.566962,35.361687,49.247154,29.488632,7.562012,32.746666,40.056969,33.333710,28.912006
230,0,-82.145798,152.558182,-0.803802,-30.354715,78.292130,54.539974,-123.504860,85.954483,3.061265,11.534874,35.393604,49.256084,29.459244,7.572023,32.759174,40.037773,33.339653,28.906458
231,0,-82.139206,152.588959,-0.787965,-30.361246,78.263245,54.530052,-123.503326,85.953476,3.061377,11.527595,35.346149,49.238575,29.470337,7.560635,32.774746,40.036819,33.328194,28.910643
232,0,-82.176529,152.554428,-0.785562,-30.373989,78.276939,54.522194,-123.502602,85.955627,3.060518,11.515076,35.327347,49.230915,29.447392,7.562427,32.761787,40.031212,33.328003,28.928415
233,0,-82.202919,152.559830,-0.773587,-30.371647,78.277451,54.529144,-123.503036,85.957146,3.060053,11.501687,35.347668,49.230492,29.434494,7.565514,32.762848,40.022034,33.327961,28.922688
234,0,-82.203735,152.559601,-0.773598,-30.392982,78.259018,54.526478,-123.519539,85.914062,3.106768,11.517672,35.315594,49.239582,29.462074,7.555389,32.755821,40.023441,33.316208,28.917593
235,0,-82.212463,152.555817,-0.786859,-30.361305,78.264847,54.530346,-123.519295,85.931702,3.138254,11.516331,35.315834,49.238873,29.438824,7.565724,32.742897,40.005424,33.353168,28.906179
236,0,-82.176086,152.594559,-0.755108,-30.346703,78.272469,54.525581,-123.502686,85.875671,3.194546,11.509209,35.333843,49.223171,29.453960,7.556505,32.777573,40.023884,33.339142,28.913050
237,0,-82.173653,152.593689,-0.724608,-30.323071,78.258110,54.538971,-123.499878,85.870110,3.196039,11.525185,35.354507,49.240643,29.459904,7.560752,32.769325,40.020569,33.334404,28.903439
238,0,-82.208900,152.595673,-0.725772,-30.334274,78.265099,54.538944,-123.467117,85.974724,3.172991,11.540075,35.364632,49.227108,29.454876,7.574717,32.765926,40.049015,33.342197,28.942822
239,0,-82.148102,152.621567,-0.699770,-30.321619,78.252777,54.529999,-123.468468,85.979820,3.171525,11.541136,35.377163,49.243137,29.473095,7.542640,32.777775,40.045937,33.350071,28.891113
240,0,-82.086540,152.626114,-0.671896,-30.273361,78.293610,54.565903,-123.470825,85.987595,3.206387,11.587319,35.328266,49.274548,29.492552,7.529358,32.788151,40.075508,33.332390,28.933022
241,0,-82.116470,152.625900,-0.627693,-30.282465,78.267517,54.574249,-123.481499,85.952942,3.249188,11.610033,35.341724,49.284958,29.509436,7.522657,32.782288,40.091190,33.325935,28.936342
242,0,-82.087402,152.640717,-0.633143,-30.252520,78.281761,54.575642,-123.518608,86.091393,3.220238,11.595338,35.355217,49.271553,29.501604,7.528110,32.784218,40.095215,33.349899,28.933775
243,0,-82.121185,152.632965,-0.615121,-30.255430,78.281601,54.578571,-123.499596,86.045082,3.272103,11.598139,35.379688,49.264671,29.505995,7.530150,32.795254,40.075470,33.353691,28.930944
244,0,-82.095131,152.675537,-0.586401,-30.253872,78.283401,54.572495,-123.467606,86.153267,3.285611,11.593705,35.354126,49.274055,29.510811,7.529898,32.763718,40.110409,33.342991,28.915257
245,0,-82.094063,152.676208,-0.588452,-30.251570,78.273178,54.586414,-123.426117,86.168335,3.279202,11.593846,35.349869,49.280048,29.509180,7.551459,32.767540,40.113213,33.333153,28.938398
246,0,-82.048035,152.679626,-0.591108,-30.246531,78.268494,54.572514,-123.428078,86.175476,3.277383,11.620247,35.368221,49.274960,29.525618,7.523107,32.779747,40.100449,33.346230,28.928438
247,0,-82.079407,152.693039,-0.624779,-30.256470,78.284760,54.573399,-123.468544,86.147331,3.250464,11.605433,35.366596,49.256866,29.510958,7.526282,32.781391,40.100513,33.344704,28.923092
248,0,-82.048721,152.697510,-0.581509,-30.257864,78.274246,54.562366,-123.467705,86.144127,3.251469,11.591711,35.363277,49.266430,29.486088,7.535693,32.765472,40.095779,33.325653,28.924871
249,0,-82.048546,152.697586,-0.582349,-30.255932,78.265694,54.572613,-123.464714,86.138367,3.253169,11.600895,35.352596,49.269321,29.528759,7.521093,32.778790,40.081245,33.332386,28.913490
250,0,-82.083321,152.698959,-0.584380,-30.283779,78.271004,54.548798,-123.507080,86.114006,3.180747,11.578730,35.348526,49.284966,29.521196,7.522524,32.801491,40.072693,33.332294,28.925871
251,0,-82.109818,152.687103,-0.579755,-30.292740,78.254974,54.549530,-123.516930,86.085060,3.221753,11.541982,35.367393,49.228451,29.476816,7.525759,32.780594,40.054657,33.328270,28.917461
252,0,-82.112389,152.668610,-0.568921,-30.295460,78.252129,54.554256,-123.516388,86.087502,3.220944,11.544124,35.363121,49.259258,29.479563,7.527990,32.780209,40.060963,33.330109,28.911291
253,0,-82.118057,152.676071,-0.557721,-30.310524,78.257317,54.565575,-123.495888,86.031708,3.276518,11.535319,35.316078,49.266922,29.451727,7.549228,32.770103,40.034939,33.332039,28.916601
254,0,-82.130852,152.681793,-0.533001,-30.299070,78.244034,54.582752,-123.516579,85.989731,3.360016,11.504630,35.338779,49.243023,29.427492,7.550660,32.761086,40.036316,33.342247,28.914850
255,0,-82.118584,152.674194,-0.556699,-30.331848,78.289192,54.576145,-123.496498,86.038361,3.310989,11.524587,35.328518,49.221016,29.455336,7.544779,32.764721,40.058571,33.324623,28.917879
256,0,-82.165428,152.653946,-0.561923,-30.325079,78.251190,54.577084,-123.496155,86.051102,3.306567,11.523863,35.311905,49.258785,29.442045,7.536918,32.769520,40.023766,33.349617,28.917959
257,0,-82.164650,152.653580,-0.561864,-30.323372,78.250198,54.577068,-123.511436,86.096725,3.253286,11.516070,35.362396,49.265705,29.442099,7.523358,32.758022,40.042526,33.315041,28.930254
258,0,-82.168678,152.643204,-0.588050,-30.362366,78.282570,54.550522,-123.512665,86.087494,3.220243,11.489891,35.363537,49.236702,29.412069,7.540409,32.753525,40.032238,33.326859,28.892567
259,0,-82.169762,152.660782,-0.626803,-30.374310,78.272331,54.542015,-123.513084,86.089043,3.219880,11.482616,35.354385,49.225056,29.423334,7.527140,32.758907,40.010090,33.328545,28.895069
260,0,-82.138779,152.605133,-0.603159,-30.380898,78.242035,54.552074,-123.541946,86.091576,3.188195,11.513239,35.315395,49.234570,29.427006,7.525814,32.755798,39.989738,33.324528,28.922098
261,0,-82.189034,152.620636,-0.664040,-30.376167,78.253937,54.530899,-123.541588,86.087044,3.152840,11.448216,35.334591,49.231651,29.437725,7.517654,32.764870,39.996208,33.310333,28.935860
262,0,-82.209251,152.625061,-0.643279,-30.396887,78.260597,54.544182,-123.535538,85.999290,3.169302,11.469619,35.332581,49.232723,29.411394,7.542169,32.760334,40.008884,33.317402,28.927704
263,0,-82.222992,152.621307,-0.664899,-30.392378,78.264160,54.542145,-123.574013,85.985893,3.174412,11.446895,35.336090,49.228329,29.403013,7.534880,32.765652,39.958488,33.339611,28.924023
264,0,-82.217834,152.614136,-0.676878,-30.438864,78.229187,54.536713,-123.575066,85.979668,3.176879,11.448046,35.325474,49.243805,29.409178,7.527577,32.771122,39.967934,33.324829,28.942707
265,0,-82.182716,152.613693,-0.676790,-30.439116,78.229523,54.536705,-123.592659,86.029747,3.122227,11.452931,35.336906,49.259315,29.442982,7.511951,32.790421,39.984203,33.324867,28.926916
266,0,-82.222771,152.581146,-0.695552,-30.455954,78.237534,54.541153,-123.592300,86.033859,3.120853,11.448859,35.331291,49.232994,29.417629,7.523587,32.770069,39.965569,33.331879,28.914782
267,0,-82.220917,152.573578,-0.738101,-30.436954,78.220200,54.517490,-123.593529,86.024323,3.087275,11.450152,35.329258,49.226139,29.422312,7.524138,32.759888,39.965828,33.335148,28.913078
268,0,-82.207207,152.564911,-0.732839,-30.442608,78.216972,54.522842,-123.591637,86.027138,3.086225,11.449656,35.325523,49.241898,29.349890,7.530653,32.751682,39.960373,33.340031,28.920231
269,0,-82.211090,152.552261,-0.757166,-30.453684,78.229065,54.509949,-123.593895,86.025589,3.086878,11.448395,35.320732,49.244526,29.405943,7.524794,32.788834,39.961075,33.333618,28.942936
270,0,-82.213455,152.553299,-0.788597,-30.465958,78.236000,54.505783,-123.607513,85.847374,3.080207,11.429513,35.323444,49.237213,29.360970,7.527083,32.752567,39.944054,33.323624,28.914967
271,0,-82.236893,152.546188,-0.825168,-30.471605,78.212349,54.490257,-123.592255,85.886246,3.034674,11.432085,35.318230,49.223518,29.371120,7.517010,32.760098,39.939537,33.319237,28.906408
272,0,-82.228806,152.507614,-0.841472,-30.494556,78.201248,54.480610,-123.591370,85.883476,2.999403,11.433949,35.317287,49.224628,29.366442,7.509298,32.749161,39.950695,33.319141,28.911869
273,0,-82.219421,152.500198,-0.895698,-30.479094,78.205902,54.467400,-123.575218,85.928452,2.951070,11.436689,35.311588,49.231068,29.398392,7.483359,32.797997,39.950043,33.311466,28.921860
274,0,-82.214355,152.494690,-0.908136,-30.507021,78.206223,54.439873,-123.572395,85.927856,2.950836,11.410851,35.299850,49.208408,29.344261,7.516424,32.751690,39.966019,33.313538,28.923500
275,0,-82.216423,152.485229,-0.932065,-30.518997,78.198647,54.451317,-123.591469,85.977715,2.896861,11.422545,35.289658,49.234146,29.385157,7.498895,32.771942,39.961243,33.310753,28.926989
276,0,-82.204987,152.494110,-0.959265,-30.532698,78.193253,54.452427,-123.591774,85.974373,2.861987,11.421607,35.297115,49.224682,29.373787,7.505083,32.766178,39.960358,33.308151,28.926296
277,0,-82.208900,152.483215,-0.983799,-30.530531,78.188339,54.405918,-123.622993,85.871178,2.883484,11.409984,35.299473,49.208649,29.342541,7.516002,32.747597,39.956894,33.328682,28.936424
278,0,-82.159782,152.468597,-1.051238,-30.516361,78.207451,54.411140,-123.547714,85.765953,2.901444,11.421744,35.311508,49.214298,29.366032,7.514255,32.763081,39.956024,33.332981,28.918941
279,0,-82.158783,152.499435,-1.021764,-30.541666,78.211678,54.383453,-123.499176,85.907997,2.832789,11.432775,35.305782,49.226116,29.331902,7.519410,32.737930,39.973957,33.330921,28.925568
280,0,-82.121201,152.493927,-1.050822,-30.530571,78.202507,54.386341,-123.498779,85.899826,2.800118,11.425666,35.286831,49.227489,29.351078,7.511316,32.748070,39.969589,33.334709,28.928225
281,0,-82.114677,152.498184,-1.064535,-30.505114,78.202599,54.404446,-123.504547,85.902641,2.799593,11.436966,35.311523,49.220181,29.378531,7.509963,32.754509,39.976963,33.323406,28.927988
282,0,-82.101715,152.521957,-1.059532,-30.500181,78.211021,54.389580,-123.500984,85.898880,2.800639,11.438557,35.312046,49.219021,29.349094,7.508048,32.749542,39.966599,33.332745,28.924133
283,0,-82.065155,152.545380,-1.063641,-30.484528,78.227455,54.397823,-123.502045,85.896751,2.801488,11.434399,35.329262,49.216183,29.330692,7.517070,32.739872,39.989410,33.326546,28.922094
284,0,-82.053154,152.568634,-1.061787,-30.458569,78.257324,54.395271,-123.464912,86.003578,2.778286,11.436823,35.321350,49.238716,29.342651,7.516335,32.753304,40.001343,33.318726,28.949381
285,0,-82.053307,152.568008,-1.061545,-30.460915,78.256737,54.396721,-123.468277,86.007820,2.777092,11.437347,35.327991,49.220501,29.378401,7.512924,32.759220,39.985558,33.325314,28.939341
286,0,-82.030266,152.578766,-1.094470,-30.465818,78.282059,54.381744,-123.432274,86.019447,2.772410,11.440460,35.349751,49.212227,29.329149,7.509338,32.750599,39.970295,33.346539,28.928192
287,0,-82.064087,152.588623,-1.090037,-30.450026,78.262932,54.399982,-123.420235,86.057350,2.726408,11.441120,35.351978,49.209332,29.336479,7.531928,32.745564,39.984489,33.344719,28.909700
288,0,-82.002678,152.586227,-1.090442,-30.474224,78.262772,54.391773,-123.420036,86.060860,2.725029,11.439566,35.352097,49.210857,29.384575,7.531741,32.762089,40.003326,33.317287,28.950489
289,0,-82.014442,152.599030,-1.127012,-30.446487,78.284912,54.386257,-123.418259,86.054756,2.727187,11.447708,35.347076,49.221035,29.358334,7.535335,32.754494,40.004028,33.329948,28.927113
290,0,-81.996178,152.615204,-1.135674,-30.466972,78.310677,54.359295,-123.420685,86.058876,2.725864,11.443601,35.347866,49.217968,29.377241,7.533869,32.755489,40.018185,33.317616,28.943569
291,0,-82.010612,152.611176,-1.157990,-30.452557,78.287308,54.365566,-123.419144,86.057785,2.726116,11.441416,35.357086,49.208534,29.409027,7.535661,32.771427,40.001343,33.314766,28.949451
292,0,-82.021011,152.606262,-1.174450,-30.461861,78.289124,54.379318,-123.417603,86.056717,2.726360,11.444947,35.351547,49.215889,29.407093,7.524410,32.788208,40.016312,33.319714,28.943039
293,0,-82.003677,152.578964,-1.156478,-30.447922,78.297722,54.371902,-123.415840,86.059174,2.725210,11.429704,35.335648,49.211826,29.406227,7.532333,32.766354,40.015213,33.317089,28.946259
294,0,-81.995193,152.552155,-1.178577,-30.448286,78.293610,54.374001,-123.403931,85.973259,2.665704,11.446924,35.358292,49.201599,29.371214,7.558918,32.755798,40.009674,33.321217,28.932844
295,0,-82.029358,152.553284,-1.182344,-30.481167,78.281433,54.349758,-123.402809,85.982788,2.662722,11.436275,35.354561,49.208916,29.369553,7.539826,32.746288,39.993855,33.320011,28.920830
296,0,-82.056503,152.541580,-1.176033,-30.536709,78.241554,54.371880,-123.402145,85.984848,2.662025,11.415563,35.321384,49.214401,29.339386,7.531688,32.748451,39.971912,33.323757,28.945395
297,0,-82.080162,152.516159,-1.219658,-30.526402,78.244690,54.351109,-123.507484,85.982719,2.666183,11.382522,35.327682,49.204010,29.310251,7.550976,32.741772,39.946163,33.343388,28.912769
298,0,-82.111435,152.515671,-1.195302,-30.545753,78.235161,54.368977,-123.503075,85.987450,2.664104,11.360450,35.330505,49.201160,29.306467,7.558047,32.736271,39.897381,33.317219,28.926668
299,0,-82.117500,152.520737,-1.184251,-30.566582,78.233597,54.363567,-123.508621,85.995262,2.661752,11.342228,35.315575,49.177437,29.297588,7.553555,32.744457,39.907516,33.322510,28.903196
300,0,-82.129311,152.527267,-1.156329,-30.552248,78.217850,54.375751,-123.504181,85.998894,2.695948,11.346613,35.355049,49.199554,29.286541,7.539830,32.733685,39.918980,33.304443,28.929968
301,0,-82.129509,152.527405,-1.157291,-30.577923,78.262611,54.365582,-123.506996,85.991501,2.699169,11.343344,35.315926,49.180466,29.293007,7.539343,32.748940,39.924042,33.310284,28.925133
302,0,-82.135269,152.534042,-1.145211,-30.570133,78.276733,54.378017,-123.503197,85.991158,2.698445,11.328756,35.363441,49.186207,29.305180,7.554875,32.745155,39.904999,33.315407,28.926125
303,0,-82.091576,152.536163,-1.128199,-30.537907,78.259033,54.357479,-123.520882,85.950958,2.746529,11.354044,35.340080,49.215454,29.261538,7.559667,32.727757,39.934235,33.335220,28.926479
304,0,-82.118515,152.573425,-1.109500,-30.547510,78.259705,54.367779,-123.522385,85.952118,2.746467,11.355570,35.331806,49.187550,29.317720,7.534009,32.760986,39.886932,33.359470,28.903025
305,0,-82.127533,152.569855,-1.123841,-30.548294,78.267166,54.380352,-123.502792,85.905045,2.798581,11.332395,35.355999,49.191559,29.319048,7.538144,32.769985,39.902676,33.344700,28.918823
306,0,-82.127487,152.568619,-1.122965,-30.561094,78.256142,54.392658,-123.502892,85.910072,2.832893,11.365562,35.340984,49.218880,29.286871,7.560400,32.739491,39.917591,33.327957,28.931650
307,0,-82.160477,152.564331,-1.107763,-30.545458,78.240753,54.381615,-123.503868,85.895958,2.801927,11.364217,35.327309,49.235306,29.303072,7.537743,32.764568,39.910969,33.325981,28.929728
308,0,-82.113693,152.548676,-1.067611,-30.561800,78.244339,54.390324,-123.502998,85.901489,2.799871,11.366779,35.338135,49.223663,29.300676,7.535047,32.768856,39.927078,33.319660,28.940744
309,0,-82.133888,152.542114,-1.077377,-30.544182,78.240227,54.394123,-123.536674,86.036690,2.806026,11.321040,35.363873,49.208973,29.296741,7.538073,32.766701,39.897976,33.335915,28.895538
310,0,-82.140419,152.537079,-1.063693,-30.563093,78.267090,54.394806,-123.536255,86.027260,2.809572,11.318336,35.348774,49.206203,29.288837,7.529663,32.766865,39.892677,33.322639,28.936495
311,0,-82.136574,152.547058,-1.037054,-30.583136,78.251198,54.403149,-123.537201,86.029732,2.772499,11.323089,35.342739,49.227226,29.286266,7.535395,32.761318,39.921413,33.300186,28.945442
312,0,-82.167702,152.566071,-1.043981,-30.582777,78.248215,54.405338,-123.577393,86.016869,2.777640,11.332040,35.336018,49.215721,29.303528,7.536938,32.771046,39.886978,33.306118,28.947559
313,0,-82.180496,152.542267,-1.046292,-30.591177,78.242493,54.391361,-123.574577,86.020592,2.812260,11.314445,35.345650,49.207710,29.245659,7.546414,32.742161,39.877277,33.324497,28.931515
314,0,-82.231583,152.557022,-1.013101,-30.592010,78.239265,54.414024,-123.573280,86.016159,2.813741,11.323844,35.345158,49.220566,29.259058,7.536321,32.759209,39.862091,33.322311,28.954121
315,0,-82.193077,152.553986,-0.982108,-30.591688,78.223648,54.405014,-123.572441,86.013298,2.814697,11.301526,35.327354,49.205925,29.239931,7.520613,32.759201,39.836346,33.304718,28.945070
316,0,-82.194954,152.564514,-0.983705,-30.602762,78.239586,54.437740,-123.623688,85.871323,2.883539,11.302143,35.326046,49.199425,29.242079,7.520387,32.769264,39.714294,33.518623,29.037973
317,0,-82.226219,152.565628,-0.955621,-30.601318,78.240181,54.436848,-123.622131,85.869980,2.883770,11.273587,35.327061,49.209541,29.247297,7.522266,32.772038,39.764812,33.410545,28.963537
318,0,-82.281265,152.563416,-0.952799,-30.593899,78.227936,54.433189,-123.699135,85.982025,2.863395,11.258124,35.314709,49.198994,29.217772,7.547417,32.744724,39.695065,33.536018,29.044790
319,0,-82.281189,152.563034,-0.950977,-30.596605,78.226707,54.435150,-123.657059,85.996521,2.857306,11.254990,35.325089,49.200012,29.229122,7.528827,32.763447,39.759998,33.408615,28.968990
320,0,-82.303734,152.579285,-0.892202,-30.611792,78.222633,54.417755,-123.691460,85.983940,2.861891,11.254102,35.314884,49.180752,29.233133,7.529347,32.759029,39.755817,33.396091,28.980436
321,0,-82.301888,152.556030,-0.905910,-30.626146,78.217094,54.429909,-123.689262,85.983078,2.862011,11.271132,35.305859,49.189495,29.235540,7.530196,32.736813,39.752438,33.383293,28.956926
322,0,-82.339363,152.563873,-0.865751,-30.667988,78.184601,54.437897,-123.690453,85.989227,2.895362,11.255007,35.296482,49.201283,29.213936,7.544155,32.744862,39.624973,33.520485,29.034616
323,0,-82.325485,152.567612,-0.844012,-30.657909,78.170738,54.463306,-123.712296,85.935493,2.948502,11.234825,35.321594,49.198448,29.194174,7.536574,32.751228,39.725883,33.385880,28.957167
324,0,-82.378006,152.540070,-0.819584,-30.671059,78.178864,54.453369,-123.712463,85.940559,2.946923,11.231193,35.284241,49.205036,29.167500,7.518443,32.743557,39.716915,33.380169,28.982981
325,0,-82.354134,152.525528,-0.796067,-30.671772,78.150772,54.491840,-123.691490,85.893280,2.999874,11.209445,35.290802,49.196854,29.181715,7.520589,32.752731,39.601696,33.530788,29.022223
326,0,-82.372894,152.526093,-0.757178,-30.684893,78.150627,54.480736,-123.748474,86.072014,2.919160,11.225492,35.287292,49.189224,29.186506,7.496965,32.760857,39.608219,33.521076,29.037727
327,0,-82.396332,152.537506,-0.723538,-30.681484,78.142670,54.495888,-123.741463,85.984634,3.054403,11.220070,35.280956,49.220131,29.171522,7.517330,32.760738,39.584934,33.535675,29.041361
328,0,-82.390182,152.572464,-0.703999,-30.667553,78.125656,54.519066,-123.778191,85.963165,3.062402,11.222599,35.278294,49.224342,29.166195,7.527195,32.742020,39.675892,33.396721,28.978006
329,0,-82.401451,152.581741,-0.699926,-30.674747,78.131790,54.511139,-123.778191,85.963165,3.062402,11.224883,35.285015,49.208225,29.168533,7.514862,32.749447,39.596935,33.521896,29.054489
330,0,-82.396042,152.592941,-0.626243,-30.664663,78.126907,54.519012,-123.783981,85.973778,3.096006,11.232846,35.268562,49.224907,29.179504,7.521630,32.754196,39.582523,33.534218,29.041594
331,0,-82.403557,152.600876,-0.642425,-30.657089,78.143639,54.520325,-123.779442,85.981079,3.092258,11.222696,35.261242,49.231018,29.187225,7.498069,32.767563,39.619377,33.507130,29.056751
332,0,-82.346657,152.606964,-0.605498,-30.644550,78.171051,54.527576,-123.727341,86.029312,3.126397,11.220868,35.276894,49.225761,29.182478,7.521523,32.750389,39.628391,33.498466,29.056938
333,0,-82.388451,152.620178,-0.585642,-30.651943,78.180588,54.515980,-123.710503,85.996208,3.170320,11.244946,35.268688,49.223915,29.180721,7.517565,32.759064,39.636749,33.494076,29.056555
334,0,-82.359222,152.601196,-0.581162,-30.615757,78.134422,54.546707,-123.710503,85.996208,3.170320,11.255837,35.256813,49.242878,29.217310,7.504967,32.765869,39.646896,33.491776,29.034203
335,0,-82.322655,152.623734,-0.550771,-30.639526,78.154526,54.536613,-123.748421,85.979370,3.176854,11.242235,35.269688,49.221062,29.200117,7.513812,32.751266,39.725990,33.351105,28.987570
336,0,-82.352112,152.643494,-0.558450,-30.600878,78.168938,54.565586,-123.709488,85.996704,3.206036,11.222650,35.280209,49.224567,29.185904,7.525279,32.727154,39.624901,33.512188,29.040777
337,0,-82.354904,152.613586,-0.554541,-30.600479,78.146988,54.585651,-123.746994,86.132141,3.178125,11.237896,35.263943,49.231102,29.178719,7.510088,32.758808,39.646927,33.493717,29.048546
338,0,-82.328316,152.626663,-0.560757,-30.600349,78.148392,54.566093,-123.712746,86.004272,3.168019,11.247948,35.264202,49.248455,29.220505,7.503179,32.777672,39.643433,33.495502,29.050468
339,0,-82.409508,152.604233,-0.558887,-30.619505,78.166977,54.566959,-123.711617,86.000198,3.169183,11.229397,35.281265,49.218037,29.189268,7.516246,32.759464,39.716766,33.371029,28.987612
340,0,-82.375069,152.596237,-0.526374,-30.632763,78.158562,54.557362,-123.782196,86.113411,3.184488,11.249563,35.246342,49.231297,29.208754,7.502798,32.783070,39.709789,33.370247,28.996946
341,0,-82.384628,152.601852,-0.475058,-30.642351,78.153862,54.569435,-123.749161,85.996254,3.207785,11.238084,35.236168,49.251842,29.199799,7.510056,32.766304,39.630821,33.495934,29.081800
342,0,-82.372940,152.596207,-0.500856,-30.640154,78.141251,54.600384,-123.749954,85.988640,3.210386,11.246453,35.246174,49.254883,29.190056,7.507616,32.758785,39.723858,33.337811,28.994186
343,0,-82.384995,152.593079,-0.542212,-30.638939,78.156769,54.557907,-123.782684,86.106155,3.150740,11.251326,35.249863,49.245880,29.195257,7.505774,32.770161,39.585533,33.486565,29.060722
344,0,-82.374680,152.597168,-0.527988,-30.672567,78.109924,54.566029,-123.750671,85.985611,3.211516,11.202524,35.261353,49.232044,29.163498,7.508220,32.750568,39.609043,33.491264,29.059797
345,0,-82.396393,152.579987,-0.478424,-30.658669,78.143066,54.595657,-123.784172,86.115456,3.184193,11.246039,35.237152,49.263489,29.141323,7.527413,32.747772,39.582382,33.486591,29.056967
346,0,-82.352188,152.601425,-0.473721,-30.649252,78.146187,54.569073,-123.747322,85.989426,3.209497,11.229808,35.237709,49.247948,29.207476,7.506240,32.778069,39.692699,33.358372,28.991467
347,0,-82.412994,152.610214,-0.520384,-30.690239,78.113068,54.558086,-123.772980,85.877800,3.197501,11.206648,35.283783,49.211975,29.152990,7.505967,32.767105,39.604279,33.480015,29.048149
348,0,-82.409180,152.603333,-0.559992,-30.670971,78.125671,54.528744,-123.779320,85.871864,3.200469,11.222911,35.252205,49.229809,29.141769,7.502756,32.768364,39.692055,33.334358,28.993742
349,0,-82.397911,152.606827,-0.517927,-30.662756,78.111244,54.537498,-123.779320,85.871864,3.200469,11.206063,35.266933,49.219574,29.171415,7.510175,32.757874,39.605740,33.473278,29.068039
350,0,-82.379036,152.582962,-0.547033,-30.666681,78.110519,54.546730,-123.779755,85.873421,3.199990,11.218551,35.245979,49.241741,29.166901,7.500145,32.774757,39.669338,33.349339,28.999611
351,0,-82.379211,152.585266,-0.553306,-30.689152,78.129623,54.559788,-123.780785,85.867668,3.202147,11.211404,35.233425,49.233299,29.162064,7.506029,32.757713,39.598022,33.479641,29.062393
352,0,-82.410309,152.603073,-0.559306,-30.690151,78.112366,54.559147,-123.778580,85.874084,3.199589,11.227529,35.229683,49.236366,29.158390,7.512026,32.756973,39.590134,33.488049,29.062519
353,0,-82.387474,152.528839,-0.560674,-30.671169,78.101692,54.560139,-123.779320,85.871864,3.200469,11.222534,35.235809,49.252136,29.169670,7.519880,32.754623,39.597210,33.478264,29.060907
354,0,-82.403397,152.526093,-0.584989,-30.661695,78.091446,54.539574,-123.781540,85.865425,3.203037,11.217362,35.234783,49.252548,29.176910,7.491798,32.755871,39.610435,33.489468,29.047670
355,0,-82.364929,152.529068,-0.592720,-30.664232,78.113510,54.537403,-123.782097,85.872299,3.200709,11.228929,35.249466,49.234486,29.201082,7.488799,32.754662,39.717472,33.351974,28.971952
356,0,-82.322441,152.541153,-0.635544,-30.651520,78.096603,54.531990,-123.778419,85.972733,3.094828,11.220201,35.239445,49.252342,29.207027,7.486082,32.759274,39.723942,33.357044,28.974503
357,0,-82.317368,152.535507,-0.646956,-30.649544,78.084137,54.540585,-123.781761,85.966377,3.061769,11.236710,35.254364,49.235931,29.225357,7.472345,32.770714,39.738014,33.343826,28.997549
358,0,-82.338570,152.528793,-0.657497,-30.662697,78.121330,54.523285,-123.773476,85.965286,3.060995,11.243765,35.255589,49.253891,29.185862,7.486309,32.754993,39.658710,33.485386,29.044279
359,0,-82.317505,152.528580,-0.716556,-30.664812,78.125580,54.521004,-123.743851,85.980888,3.056103,11.244756,35.252556,49.228504,29.221201,7.476616,32.777939,39.743343,33.351978,28.982407
360,0,-82.345055,152.545685,-0.692726,-30.665775,78.122009,54.518589,-123.727089,86.018875,3.010091,11.252929,35.240116,49.263519,29.205687,7.481641,32.759346,39.647831,33.495407,29.039862
361,0,-82.324707,152.521332,-0.701862,-30.667625,78.122208,54.519299,-123.693649,85.900635,3.033290,11.242902,35.232838,49.257168,29.198208,7.483336,32.759216,39.644512,33.487633,29.061148
362,0,-82.347107,152.548325,-0.723307,-30.678579,78.117393,54.503674,-123.693176,85.898949,3.033807,11.244844,35.248772,49.229683,29.194529,7.478310,32.765259,39.636482,33.486813,29.071594
363,0,-82.362350,152.533051,-0.742981,-30.672043,78.123009,54.518032,-123.749123,85.937523,2.984147,11.222023,35.230961,49.233421,29.186838,7.478505,32.764774,39.620796,33.488331,29.059385
364,0,-82.315308,152.490479,-0.790575,-30.678604,78.133400,54.497555,-123.762291,85.771240,3.028681,11.205688,35.258976,49.231846,29.180658,7.478190,32.757191,39.728935,33.362934,28.973171
365,0,-82.327827,152.494705,-0.832161,-30.663698,78.128883,54.468388,-123.703835,85.836662,2.969745,11.243574,35.255257,49.218525,29.196808,7.463318,32.764656,39.730801,33.349094,28.985388
366,0,-82.349739,152.475922,-0.839410,-30.680723,78.130692,54.467857,-123.725060,85.885002,2.917103,11.233151,35.266148,49.217495,29.224611,7.466286,32.770351,39.743237,33.348209,28.984207
367,0,-82.319649,152.456070,-0.832099,-30.702557,78.129646,54.473335,-123.722878,85.881584,2.917922,11.225608,35.236069,49.223682,29.208759,7.480202,32.759457,39.737648,33.352089,28.979700
368,0,-82.324699,152.446396,-0.874757,-30.720606,78.126442,54.462135,-123.759109,85.863510,2.889331,11.186254,35.247715,49.216858,29.195602,7.480166,32.757294,39.637856,33.505619,29.019402
369,0,-82.367363,152.432373,-0.922885,-30.734463,78.096619,54.447723,-123.758919,85.867096,2.887801,11.187489,35.233273,49.208809,29.174728,7.488991,32.735744,39.724037,33.341049,28.983202
370,0,-82.409714,152.409119,-0.898646,-30.754274,78.066422,54.454868,-123.760979,85.724350,2.834362,11.188251,35.230492,49.215553,29.179449,7.485115,32.748528,39.704803,33.332989,28.970329
371,0,-82.418282,152.375854,-0.946350,-30.762768,78.058662,54.441456,-123.796402,85.844803,2.774739,11.172068,35.209618,49.223293,29.168037,7.470862,32.740368,39.593861,33.485645,29.034256
372,0,-82.428734,152.371506,-0.962386,-30.797031,78.038887,54.444817,-123.795654,85.838615,2.777470,11.150166,35.216824,49.214199,29.144539,7.469214,32.732166,39.668903,33.344212,28.966143
373,0,-82.423180,152.363708,-0.973237,-30.832729,78.047096,54.443428,-123.830322,85.731255,2.800020,11.135418,35.230423,49.225361,29.111589,7.465017,32.740536,39.590748,33.472916,29.052710
374,0,-82.424225,152.332016,-1.002632,-30.866899,78.039818,54.421822,-123.814743,85.655678,2.737551,11.117373,35.230324,49.226040,29.125113,7.468719,32.754322,39.565487,33.481461,29.054413
375,0,-82.430580,152.344070,-1.045695,-30.855339,78.059586,54.402512,-123.817268,85.671547,2.731733,11.109324,35.193703,49.212673,29.128237,7.452359,32.747589,39.557995,33.487507,29.025244
376,0,-82.438789,152.310089,-1.095194,-30.851816,78.029655,54.383148,-123.804474,85.709030,2.683566,11.111716,35.241619,49.212132,29.126659,7.466566,32.722843,39.649715,33.343098,28.962875
377,0,-82.433159,152.332489,-1.074103,-30.862768,78.081329,54.366264,-123.804329,85.708427,2.683807,11.091173,35.223610,49.208454,29.110403,7.467710,32.731972,39.540947,33.482903,29.045876
378,0,-82.456169,152.356781,-1.092628,-30.861778,78.080139,54.371597,-123.823647,85.749565,2.599464,11.094754,35.235489,49.212059,29.119898,7.466025,32.734131,39.549026,33.491173,29.036154
379,0,-82.434189,152.326645,-1.119174,-30.886782,78.082367,54.344219,-124.002441,84.218613,3.253254,11.085396,35.241161,49.190247,29.071354,7.494700,32.726070,39.642361,33.353321,28.974421
380,0,-82.441086,152.293076,-1.140389,-30.895582,78.073296,54.356930,-123.817810,85.756668,2.595620,11.088042,35.240936,49.202652,29.108397,7.498378,32.740688,39.544357,33.471073,29.024403
381,0,-82.433113,152.327393,-1.158260,-30.889286,78.058174,54.349701,-124.039337,84.307671,3.223855,11.074018,35.268913,49.172306,29.081156,7.495291,32.719521,39.513058,33.475559,29.035139
382,0,-82.464905,152.335510,-1.193669,-30.906357,78.054756,54.329594,-123.816513,85.747452,2.564071,11.065454,35.244255,49.156277,29.049793,7.507823,32.718441,39.511898,33.476952,29.039463
383,0,-82.459755,152.305145,-1.173247,-30.898670,78.057983,54.323608,-124.042625,84.301468,3.190458,11.041132,35.229519,49.154942,29.062803,7.500439,32.744251,39.509289,33.462498,29.039274
384,0,-82.457291,152.334442,-1.158271,-30.942867,78.057327,54.322796,-124.100029,84.333252,3.149669,11.037773,35.224693,49.166595,29.042891,7.505586,32.751324,39.455254,33.493217,29.031647
385,0,-82.469696,152.331985,-1.201310,-30.955692,78.021591,54.325443,-124.059204,84.230293,3.166324,11.018394,35.234959,49.180466,29.015676,7.500896,32.725563,39.457527,33.490383,29.036324
386,0,-82.484177,152.328537,-1.223900,-30.968569,78.033646,54.305866,-124.078041,84.350029,3.106102,10.977409,35.221554,49.139149,29.009844,7.501891,32.723782,39.413708,33.507286,29.018070
387,0,-82.474648,152.331894,-1.209000,-30.973850,78.027794,54.307144,-124.085701,84.316277,3.122524,10.970102,35.195896,49.149853,29.016745,7.486659,32.727932,39.402721,33.510895,29.003414
388,0,-82.477493,152.372421,-1.137136,-31.020576,78.020355,54.285469,-124.088417,84.309319,3.133438,10.981491,35.188877,49.155270,28.960842,7.521347,32.711132,39.376556,33.494202,29.012682
389,0,-82.477867,152.379547,-1.116170,-31.015659,78.016251,54.293701,-124.129738,84.209366,3.190800,10.908196,35.236927,49.134705,28.964355,7.479084,32.720699,39.357582,33.526955,29.019316
390,0,-82.505333,152.413910,-1.096829,-31.034262,78.059090,54.320641,-124.118179,84.224312,3.233158,10.884319,35.236134,49.119995,28.903362,7.500547,32.730328,39.323956,33.517384,29.032263
391,0,-82.508247,152.403275,-1.144595,-31.023788,78.076378,54.318359,-124.212944,84.285103,3.217865,10.892236,35.226685,49.123703,28.884077,7.530454,32.712513,39.324253,33.521118,29.040485
392,0,-82.504677,152.446884,-1.189321,-31.060102,78.111412,54.279282,-124.164749,84.285690,3.151141,10.884571,35.263367,49.090385,28.883595,7.529592,32.708168,39.311832,33.525928,29.027422
393,0,-82.439346,152.457672,-1.242851,-31.043310,78.115555,54.230007,-123.904594,86.006477,2.383843,10.871453,35.268578,49.089466,28.879732,7.527042,32.700043,39.290154,33.534695,29.009453
394,0,-82.433083,152.436447,-1.344532,-31.045568,78.129738,54.193054,-124.081230,84.440186,2.962261,10.873772,35.299221,49.088825,28.850288,7.541331,32.693645,39.302414,33.529907,29.022200
395,0,-82.358269,152.437515,-1.471169,-31.051741,78.144379,54.156776,-123.832603,85.998116,2.195470,10.865868,35.302765,49.083920,28.848087,7.534583,32.704586,39.309052,33.529526,29.022348
396,0,-82.328346,152.432999,-1.571661,-31.053141,78.154457,54.123367,-123.848763,85.845512,2.076821,10.865917,35.307751,49.072495,28.881681,7.523826,32.695080,39.340683,33.520706,29.027266
397,0,-82.279388,152.442093,-1.674398,-31.053495,78.195244,54.077694,-123.757690,85.932312,1.941615,10.874086,35.305153,49.070477,28.894712,7.528787,32.704491,39.327148,33.542538,29.012283
398,0,-82.223732,152.403625,-1.736359,-31.050005,78.181458,54.036549,-123.654953,85.836472,1.884360,10.873479,35.298500,49.081421,28.935179,7.497776,32.704971,39.382034,33.543522,29.019505
399,0,-82.174164,152.390610,-1.745282,-31.026463,78.154060,54.036335,-123.658844,85.845695,1.881269,10.881245,35.287167,49.087051,28.949732,7.487807,32.722374,39.415066,33.526058,29.030735
400,0,-82.152840,152.396606,-1.792260,-31.023384,78.144707,54.037163,-123.638092,85.887352,1.795966,10.916750,35.278961,49.068504,28.971565,7.501772,32.721615,39.472836,33.500889,29.042833
401,0,-82.123642,152.379150,-1.828627,-31.002136,78.148674,54.036247,-123.610756,85.763794,1.823486,10.938817,35.316433,49.066940,29.006392,7.492513,32.737453,39.495510,33.531322,29.029728
402,0,-82.084686,152.363770,-1.809858,-30.995882,78.163132,54.035458,-123.577324,85.717651,1.908360,10.983419,35.307510,49.091293,29.013710,7.481185,32.739403,39.539803,33.500679,29.060825
403,0,-82.048843,152.390701,-1.693983,-30.927732,78.172737,54.101929,-123.578964,85.963043,1.890674,11.043920,35.278389,49.115696,29.049164,7.508029,32.753227,39.563148,33.503452,29.045952
404,0,-82.119240,152.460419,-1.422009,-30.869659,78.149170,54.162117,-123.644066,85.924736,2.131815,11.092050,35.285995,49.117470,29.100948,7.489456,32.739998,39.589096,33.519016,29.045504
405,0,-82.239326,152.501114,-0.992095,-30.767265,78.086609,54.355671,-123.750526,86.119469,2.552190,11.130050,35.267941,49.198227,29.175884,7.480439,32.751118,39.615082,33.505692,29.037947
406,0,-82.389221,152.635986,-0.203831,-30.668467,78.007156,54.675182,-123.909927,86.299995,3.255824,11.225403,35.143669,49.278770,29.201868,7.391628,32.784332,39.756382,33.316624,29.007715
407,0,-82.606590,152.978561,1.043902,-30.381248,77.873619,55.273575,-124.029762,86.566711,4.507709,11.441278,34.991638,49.514030,29.298960,7.284902,32.842361,39.922329,33.234192,29.069702
408,0,-82.709419,153.520538,2.918586,-29.945627,77.725716,56.123787,-124.087624,87.084244,6.292567,11.733224,34.787251,49.811058,29.488169,7.121412,32.934219,40.173855,33.161880,29.093349
409,0,-82.369644,155.034012,5.921735,-29.173519,77.633385,57.363194,-124.077339,86.377098,9.357498,12.134671,34.462234,50.242794,29.724277,6.924639,33.031769,40.508221,33.038364,29.197786
410,0,-82.008163,156.076233,9.156396,-28.143837,77.625732,59.127239,-123.652328,87.409096,12.300469,12.639584,34.065365,50.765900,29.821365,6.816214,33.005367,40.938793,32.921482,29.374208
411,0,-81.214645,157.160233,12.704725,-26.800871,77.977974,61.639179,-122.580994,89.733528,15.102735,13.330593,33.752823,51.400665,29.849422,6.795582,33.287300,41.335258,32.867481,29.611387
412,0,-80.179565,158.245453,16.357162,-25.137926,78.884003,65.220749,-121.453346,90.722946,19.111588,14.298705,34.020382,52.827892,29.336149,7.188856,33.473099,41.651043,33.074966,30.060617
413,0,-78.850670,159.227814,20.077345,-23.179243,80.317879,69.707237,-119.940277,91.605019,23.361633,15.341076,34.361584,54.834873,28.871452,7.609035,34.008850,42.119568,33.557568,30.242283
414,0,-77.424850,160.230896,23.927708,-21.331244,81.995453,75.220947,-118.349655,92.608757,27.813162,16.251245,34.875626,57.889557,27.924185,8.620635,34.407761,42.543510,34.222492,31.324610
415,0,-75.619583,161.192368,28.191727,-19.257215,83.914375,81.231041,-116.423409,93.378914,32.505714,17.193554,35.764233,62.002247,26.850609,10.419082,35.649864,43.085884,35.149368,32.774471
416,0,-73.691475,161.475861,32.395718,-17.003563,86.145874,87.780533,-114.415649,92.958466,37.839069,18.441986,37.384281,66.941269,27.001131,12.348078,39.269749,43.536243,36.264034,35.269829
417,0,-71.225693,162.578720,37.208443,-14.802114,88.019363,94.549774,-111.490044,95.431732,42.094780,20.490231,39.308853,73.468445,28.970140,14.127598,45.687210,44.822056,36.735371,40.692410
418,0,-68.299789,163.933746,42.346626,-13.066690,90.232254,101.491020,-108.832359,95.354309,47.436764,22.933859,41.414703,81.463631,32.021458,16.387911,54.061127,46.891216,37.377529,49.012653
419,0,-65.018410,165.424225,47.695961,-11.352639,92.355095,108.571266,-105.106651,97.267624,51.716248,25.919966,43.803600,90.629288,36.293449,18.477118,64.116112,49.725407,38.323181,59.835052
420,0,-61.385136,167.115097,53.122192,-9.347075,94.484718,115.706421,-101.052727,99.331604,55.974907,29.241405,46.209270,100.382225,41.069405,20.319689,74.894859,53.945652,40.130280,71.801079
421,0,-57.224918,169.017715,58.597973,-6.975319,96.729607,122.623779,-96.728485,101.087692,60.629654,32.583210,48.566795,110.106888,45.715408,22.216261,85.517044,59.105541,42.919064,83.645927
422,0,-52.531681,170.715851,63.830471,-3.937588,99.062050,129.344193,-91.923164,102.608025,65.225754,36.292835,51.126553,119.337051,50.398445,24.322470,95.624550,64.655212,46.268726,95.120560
423,0,-47.307049,172.574631,68.894363,-0.121446,101.507607,135.717514,-86.451065,104.281876,69.918411,40.580601,53.738228,127.840759,55.525639,26.467321,104.811584,70.310539,49.685841,105.716202
424,0,-41.525879,174.482391,73.617210,4.440414,104.099785,141.717636,-80.442131,106.022209,74.287163,45.352531,56.207581,135.510864,60.770992,28.613918,112.922424,76.074661,52.493160,114.732735
425,0,-35.089417,176.366653,78.016121,9.856904,106.854439,147.263123,-73.950233,107.669853,78.655373,50.677425,58.864719,142.311630,66.520058,30.839546,120.110687,82.179504,55.117649,122.413536
426,0,-28.165432,178.376205,82.051399,16.076183,109.680817,152.279800,-66.872162,109.565514,82.566261,56.789078,61.287716,148.320480,72.793167,33.145519,126.151550,88.411171,57.354599,128.617462
427,0,-20.925415,180.410492,85.878883,23.066994,112.375656,156.709717,-59.258163,111.553322,86.280739,63.660206,64.052567,153.429260,79.787071,35.722801,131.248688,95.124176,59.281979,133.625641
428,0,-13.294269,182.542618,89.591820,30.744019,114.882507,160.546158,-51.232147,113.465485,89.670197,71.493042,66.815880,157.565384,87.800110,38.520088,135.323380,102.461578,61.394569,137.421188
429,0,-5.669706,184.801163,93.433014,38.977516,117.321999,163.954742,-42.958427,115.458603,92.885223,80.140480,69.678253,160.718414,96.843185,41.695736,138.448608,110.727448,63.910603,140.072922
430,0,1.956369,187.135132,97.481842,47.600044,119.432747,166.892975,-34.370216,117.210571,96.103752,89.510712,72.633583,163.004150,106.813095,45.112110,140.490463,119.654747,67.031174,141.431778
431,0,9.479418,189.618423,101.718666,56.440231,120.981285,169.381256,-26.019634,119.440178,98.467018,99.641571,75.374619,164.505539,117.392151,48.811779,141.587891,129.545120,70.875999,142.021561
432,0,16.876869,192.111588,106.017914,65.505028,122.364548,171.566528,-17.633074,121.241287,101.156822,109.898201,78.247116,165.288620,128.254257,52.662453,141.945297,140.176956,75.365875,142.200195
433,0,24.265873,194.524506,110.070404,74.502739,123.525528,173.361649,-9.125059,122.652878,103.450264,120.086449,80.950653,165.689117,138.728714,56.460484,141.726059,150.653107,80.218109,142.141098
434,0,31.643513,196.801575,113.740921,83.382973,124.738533,174.888931,-0.289444,124.336487,105.963722,129.899048,83.566017,165.811340,149.270981,59.920689,141.298538,161.150726,85.306992,142.249603
435,0,39.184650,198.900696,116.773201,92.135780,126.051216,176.121017,8.015495,125.801880,107.329399,139.449600,85.974777,165.889389,158.893188,63.231483,140.981354,171.435516,89.874207,142.471741
436,0,46.761585,200.899384,119.090515,100.769058,127.452118,177.027786,16.392153,127.676445,108.310654,148.623611,88.234978,166.002594,168.298019,66.142334,140.524658,181.337250,93.979088,143.014435
437,0,54.614120,202.666443,120.663620,109.175369,129.325943,177.598358,24.839399,129.403351,108.970070,157.550446,90.435715,166.081055,177.471176,68.774025,140.230774,190.568756,97.974846,143.579926
438,0,62.430748,204.359848,121.670517,117.989525,130.979553,177.943054,33.171089,130.928574,109.524269,166.329971,92.596153,165.945190,186.137009,71.256317,139.888702,199.600235,100.587723,143.944427
439,0,70.216057,205.966248,122.443062,126.500290,132.796768,177.922134,41.271805,132.471069,110.095421,175.061752,94.820015,165.627869,194.860443,73.647575,139.446152,207.976578,102.906754,143.850815
440,0,77.578003,207.522949,123.204109,134.872665,134.494553,177.654953,49.116077,133.974792,110.647987,183.636658,97.008644,164.933548,203.397537,76.205528,138.562622,215.946594,104.643333,143.029236
441,0,84.570892,209.009918,124.056862,143.111664,136.034424,177.260574,56.562737,135.445984,111.087166,192.131866,99.295090,163.826447,212.018402,78.789093,137.234726,223.404114,106.302444,141.349121
442,0,91.274818,210.363083,125.000534,150.924576,137.193161,176.674606,63.715996,136.710587,111.489517,200.332336,101.375839,162.426758,220.282471,81.396263,135.498077,230.777893,107.923668,139.180374
443,0,97.567505,211.623886,125.953484,158.429047,138.155869,175.964920,70.559639,137.960434,111.640312,208.110672,103.203018,160.763153,228.129013,83.739151,133.285339,237.873688,109.854790,136.626328
444,0,103.553955,212.749527,126.736000,165.588165,138.887100,175.206268,77.075951,139.080460,111.590858,215.444168,104.683647,159.041962,235.414154,85.993973,131.300888,245.066772,112.002953,134.102463
445,0,109.487495,213.688919,127.274422,172.371460,139.437943,174.275085,83.416649,140.085159,111.250420,222.305374,105.844971,157.264328,242.371490,87.671799,129.116806,251.577255,114.746109,131.901535
446,0,115.262489,214.501480,127.415863,178.684494,139.958832,173.320572,89.598312,140.961349,110.606819,228.798401,106.686020,155.550034,248.839859,89.057426,127.033653,258.343384,116.523521,130.263535
447,0,120.953003,215.234756,127.171936,184.785339,140.419601,172.201889,95.805107,142.290909,109.670647,234.964615,107.482079,153.855835,254.770691,90.083496,125.173775,264.744171,118.160110,129.043869
448,0,126.535072,215.875397,126.584351,190.685165,140.966446,170.906174,101.506836,142.662750,108.684677,240.864532,108.164200,152.239822,260.672882,91.168396,123.237053,270.723755,119.278564,128.028702
449,0,131.986725,216.443054,125.797287,196.496384,141.441742,169.496719,107.240067,143.335129,107.570763,246.642654,108.771187,150.490646,266.450226,91.879005,121.479576,276.564911,119.892265,126.687241
450,0,137.240616,216.974487,124.868713,202.146606,141.959732,167.909836,112.665405,143.938675,106.354149,252.265488,109.407448,148.623886,271.802399,92.903236,119.168869,281.919830,120.420479,125.051407
451,0,142.162903,217.407761,123.876320,207.718475,142.423798,166.296982,117.933907,144.747955,105.204910,257.816895,110.117538,146.553436,277.433411,93.867142,116.857155,286.955841,120.854271,122.774055
452,0,147.004883,217.703506,122.872398,212.977554,142.830948,164.589951,122.825569,145.045593,104.095459,263.083771,110.830040,144.383286,282.449829,94.817398,114.514565,291.850037,121.395737,120.066933
453,0,151.465149,217.963516,121.810417,217.993332,143.191452,162.791718,127.369431,144.943481,102.921883,268.165192,111.449005,142.135712,287.411530,95.537247,112.216682,296.631012,122.049088,117.224281
454,0,155.869690,218.138031,120.613586,222.786148,143.362961,160.910873,131.914124,145.512207,101.593346,272.880066,111.860535,139.836121,292.103821,96.366722,109.677124,301.225433,122.880272,114.385040
455,0,160.022690,218.284180,119.286911,227.412903,143.391678,159.000443,136.080124,145.337555,100.171951,277.384552,112.097069,137.525772,296.391022,96.841530,107.054108,305.655365,123.612946,111.861565
456,0,164.032303,218.356018,117.944801,231.759155,143.108444,156.972748,140.162918,145.447906,98.585121,281.643524,112.201500,135.162109,300.474121,97.152565,104.388557,310.021423,124.382149,109.671227
457,0,167.833374,218.395859,116.389626,235.933960,143.037094,154.831635,143.971466,145.525360,96.943687,285.698944,112.291718,132.718948,304.395660,97.224365,102.001022,314.230469,124.783440,107.561562
458,0,171.540939,218.398941,114.837234,239.916794,143.031403,152.609543,147.688553,145.501068,95.207039,289.612183,112.344826,130.196304,308.239746,97.516960,99.155922,318.113403,124.954849,105.182205
459,0,175.060303,218.439743,113.107307,243.802689,142.912033,150.275436,151.199783,145.508438,93.489746,293.358398,112.432976,127.531364,311.895477,97.584183,96.458344,321.658630,125.083954,102.512177
460,0,178.378830,218.438736,111.455772,247.532166,142.972015,147.802719,154.559265,145.873749,91.803070,297.012756,112.545860,124.688927,315.356781,97.777962,93.504257,324.963898,125.060455,99.418114
461,0,181.528229,218.449997,109.910133,251.169296,142.896835,145.319458,157.603409,145.668137,90.224030,300.480469,112.682037,121.794029,318.682983,97.796303,90.735619,328.128052,125.230446,96.178352
462,0,184.326782,218.492828,108.480263,254.535400,142.954941,142.832291,160.458099,145.687912,88.718597,303.703827,112.914185,118.780067,321.695984,98.177704,87.547447,330.840057,125.541420,92.538704
463,0,186.784195,218.576370,107.127968,257.621002,143.056549,140.373367,162.975433,146.035049,87.289642,306.683746,113.197037,115.801552,324.454041,98.576111,84.465149,333.449677,126.640930,88.843658
464,0,189.110458,218.667542,105.809448,260.380707,143.048080,138.043747,165.208755,145.850922,85.896179,309.352142,113.551056,112.867134,326.730286,98.990601,81.377655,336.027924,127.593651,85.552307
465,0,191.196228,218.806610,104.411484,262.908661,143.197342,135.895172,167.293701,146.348129,84.357468,311.615662,113.844322,110.157372,328.930542,99.356468,78.474846,338.293335,128.769180,82.453835
466,0,193.145111,219.006668,102.932068,265.103607,143.300629,133.886826,169.123260,146.226639,82.904846,313.668304,113.997452,107.702087,330.727692,99.487167,76.126320,340.501587,129.444580,79.788429
467,0,194.926285,219.234665,101.358261,266.971466,143.458466,132.085114,170.795868,146.532608,81.375931,315.369781,114.112740,105.564949,332.206238,99.609009,73.900421,342.020264,129.997482,77.338158
468,0,196.620087,219.492706,99.774559,268.568878,143.808548,130.465866,172.327621,146.811691,79.785324,316.838531,114.223145,103.777000,333.408447,99.776421,71.892387,343.602814,130.232697,75.148918
469,0,197.930145,219.831161,98.174225,269.874084,144.070084,129.053558,173.583862,147.101654,78.270142,318.193420,114.576141,102.940559,335.142517,99.588402,71.416946,344.526184,130.501328,72.841385
470,0,199.131256,220.190201,96.457001,270.890869,144.574051,127.673569,174.780930,147.724167,76.829216,319.174469,114.970901,102.224770,336.257263,99.763954,70.788780,345.558594,130.743942,70.601715
471,0,200.231750,220.534592,94.849197,271.890503,144.976669,126.366554,175.586197,147.689651,75.701225,320.094482,115.382698,101.115234,337.620392,99.799980,69.899651,346.101990,130.896774,68.406502
472,0,201.129684,220.972641,93.240189,272.664337,145.483490,125.191048,176.409470,147.976257,74.482002,320.940308,115.859909,99.817986,338.223663,100.089180,68.950142,346.548035,130.866608,66.290718
473,0,201.811478,221.408844,91.740311,273.250092,145.932968,124.032516,176.904510,148.306900,73.368340,321.554138,116.321556,98.735527,338.562897,100.171181,67.896324,346.525635,130.753418,63.885086
474,0,202.507339,221.855087,90.240044,273.622101,146.512604,123.137619,177.506973,148.708588,72.165337,321.868713,116.571686,98.077400,338.965942,100.263802,67.248581,346.176331,130.397675,61.524658
475,0,203.192505,222.283920,88.732307,273.872803,147.042068,122.320198,177.856949,149.071503,70.888161,322.104675,116.919525,97.688835,339.419434,100.253403,67.060143,345.584381,129.713394,59.173996
476,0,203.674576,222.645660,87.158073,273.967743,147.856476,121.575493,178.134262,149.432190,69.655022,322.157410,117.195679,97.522797,339.699799,100.125122,66.871170,344.684723,129.059341,57.261620
477,0,204.151184,222.962128,85.614899,274.062836,148.382584,120.848625,178.408600,149.709915,68.440071,322.275940,117.527199,97.381042,339.961151,100.142944,66.751251,344.069275,128.105606,55.367512
478,0,204.645752,223.257263,84.198288,274.113495,148.885132,120.048477,178.631577,149.950180,67.422226,322.442749,117.910759,97.146065,340.170319,100.123230,66.664543,343.714294,127.487808,54.087532
479,0,205.085464,223.571945,82.968903,274.205719,149.303619,119.204803,178.730408,150.199692,66.466629,322.644806,118.197578,96.856422,340.165619,99.877686,66.434052,343.325928,126.979279,52.717930
480,0,205.448669,223.876312,81.810593,274.363251,149.614700,118.373055,178.915436,150.501923,65.513588,322.770355,118.362244,96.549347,340.458527,99.750237,66.253029,342.968781,126.531052,51.324924
481,0,205.789810,224.228287,80.824615,274.473419,149.950180,117.453506,179.025040,150.832794,64.737144,322.859161,118.608978,96.138763,340.769196,99.535789,66.125198,342.699738,126.221497,50.093056
482,0,206.134964,224.531250,79.845352,274.569397,150.308868,116.520821,179.118332,151.160278,64.065132,323.028290,118.857658,95.735558,340.990479,99.281204,66.004410,342.712402,126.011086,49.107021
483,0,206.492310,224.878937,78.924812,274.763031,150.712097,115.646523,179.166580,151.416809,63.491367,323.208832,119.146645,95.404556,341.456940,99.414162,65.862335,342.804535,125.946060,48.308472
484,0,206.806961,225.171112,78.051025,274.997528,151.161377,114.855927,179.264374,151.643158,63.039883,323.605347,119.758675,94.970154,341.851593,99.691071,65.776505,343.337799,125.750053,47.582409
485,0,207.281281,225.488098,77.075836,275.231201,151.596863,114.083916,179.431366,151.988937,62.557667,324.092773,120.463081,94.524200,342.179718,100.169365,65.292114,343.494293,125.659836,47.057178
486,0,207.721603,225.846497,76.205574,275.443115,151.949371,113.330009,179.705734,152.373413,61.951797,324.610687,121.118271,94.091354,343.002594,100.487396,65.084572,343.436554,125.486183,46.408978
487,0,208.349365,226.231857,75.282211,275.695190,152.362396,112.545807,180.018219,152.795410,61.274307,325.011597,121.619881,93.684959,343.340302,100.707481,64.695198,344.010773,124.968185,45.816132
488,0,208.954285,226.626984,74.261192,276.008209,152.828629,111.826813,180.444366,153.189255,60.528118,325.482117,122.140015,93.295059,344.082245,101.097359,64.380562,344.433167,124.788383,45.480579
489,0,209.635223,227.050797,73.145943,276.420258,153.467972,111.186646,181.012711,153.647446,59.779507,326.031494,122.880989,92.838402,344.564697,101.531418,64.077385,344.864624,124.630798,44.954224
490,0,210.420334,227.513580,71.941956,277.128174,154.383148,110.430847,181.721054,154.127121,59.200069,326.761719,123.867844,92.263969,345.135010,102.112053,63.590965,345.227997,124.604530,44.134087
491,0,211.318085,227.966202,70.806236,278.025208,155.390900,109.772842,182.360413,154.508362,59.039082,327.627136,124.885437,91.540962,345.726135,102.859436,62.959404,345.261597,124.852570,43.443890
492,0,212.008789,228.418930,69.912300,278.883484,156.370819,109.450417,182.978806,154.855133,59.216549,328.422852,125.777153,90.989693,346.127869,103.234299,62.707127,345.685303,125.030693,42.671730
493,0,212.539734,228.829605,69.376877,279.495209,157.244125,109.519028,183.491776,155.190918,59.667187,328.965546,126.462189,90.762932,346.528015,103.724579,62.560314,345.920166,125.139755,42.501350
494,0,212.903854,229.184555,69.315041,279.867554,157.881470,110.009102,183.925858,155.454819,60.239773,329.222931,126.858948,90.964157,346.758698,104.405960,62.594040,346.086090,125.195312,42.799271
495,0,213.020599,229.451950,69.712852,279.980072,158.278015,110.792793,184.217667,155.698578,60.725033,329.382751,127.289566,91.444824,347.124817,105.112083,62.976799,346.313599,125.791161,43.400272
496,0,212.918304,229.658859,70.524086,279.825745,158.573013,111.883095,184.354019,155.879379,61.149940,329.443787,127.953217,92.288986,347.471161,106.165413,63.635357,346.701996,126.756462,44.263371
497,0,212.722488,229.942429,71.502113,279.378235,158.971252,113.198601,184.311707,156.131805,61.751575,329.298798,128.833176,93.665230,347.276825,107.124123,65.221024,346.751373,127.606155,45.707363
498,0,212.186295,230.218292,72.593246,278.627380,159.520584,114.898720,183.956421,156.338486,62.629700,328.718109,129.503860,95.758484,347.074188,107.903183,67.559319,346.561188,128.213013,48.018394
499,0,211.216492,230.452835,73.797447,277.379089,160.200989,116.914612,183.151367,156.555542,63.971066,327.635376,130.148849,98.356667,346.069519,108.350807,70.483093,345.780060,128.601318,50.645912
500,0,209.790680,230.696060,75.200386,275.674408,160.960556,119.365761,181.866608,156.709152,65.768036,326.175171,130.753860,101.443817,344.876831,108.650284,73.869247,344.294434,129.007294,53.875282
501,0,208.229645,230.946503,76.886131,273.478973,161.680588,122.147308,180.015884,156.952271,68.006294,324.078949,131.255798,104.920082,342.789032,108.927299,77.494514,342.681549,128.987015,57.371372
502,0,205.934006,231.255768,78.841400,270.875824,162.403824,125.256119,177.751434,157.192307,70.558456,321.433716,131.571625,108.740349,340.279572,108.694427,81.745171,340.448639,128.919067,61.142834
503,0,203.373840,231.570801,81.081497,267.715881,163.083527,128.670334,174.948044,157.512878,73.304146,318.298187,131.821396,112.894577,337.273712,108.568016,86.287041,337.667480,128.744614,65.436752
504,0,200.364883,231.984238,83.623466,263.993622,163.760269,132.223694,171.717743,157.911804,76.142853,314.533875,132.097031,117.243538,333.618073,108.534996,91.104187,334.357819,128.664841,69.857666
505,0,196.843460,232.515121,86.381973,259.767426,164.400299,135.915543,167.931656,158.462997,79.003098,310.344421,132.414078,121.759888,329.590729,108.593910,95.828491,330.552368,128.839386,74.592880
506,0,192.909531,233.229935,89.282272,255.003128,165.072998,139.608749,163.764465,159.079376,81.760612,305.612793,132.838165,126.297760,325.160522,108.823540,100.728737,326.419525,129.075317,79.384216
507,0,188.541840,234.130524,92.239624,249.750290,165.933243,143.319458,159.265884,159.753662,84.489655,300.335236,133.395950,130.826843,319.992523,109.204674,105.455711,321.758392,129.471924,84.049614
508,0,183.831116,235.239136,95.090317,244.045746,166.877350,147.023743,154.353363,160.531158,87.093674,294.673798,134.108383,135.287399,314.611328,109.825165,110.193275,316.595459,130.075638,88.654045
509,0,178.631012,236.574600,97.832161,237.992035,168.094055,150.536987,149.002380,161.788879,89.604408,288.648376,135.067917,139.520935,308.737335,110.619514,114.685112,311.019775,130.785995,93.278053
510,0,173.286057,238.075897,100.283211,231.646286,169.580536,153.818542,143.160400,163.929245,91.796867,282.321838,136.263275,143.570847,302.566193,111.623657,118.952278,304.996674,131.651581,97.451920
511,0,167.518295,239.720322,102.430611,225.116241,171.292358,156.820953,137.227493,165.586761,93.936485,275.844055,137.562500,147.305237,296.095703,112.809998,122.790298,298.888245,132.687927,101.253258
512,0,161.659119,241.477219,104.300346,218.533981,173.145401,159.424301,131.068222,167.334534,95.860893,269.286896,139.084656,150.536209,289.424194,114.200119,126.124191,292.318512,133.901596,104.476151
513,0,155.354309,243.444885,106.003441,211.863602,175.096527,161.675018,124.726013,169.237656,97.544876,262.487823,140.985352,153.209335,282.645630,115.714912,128.853348,285.733887,135.216522,107.193993
514,0,149.346909,245.435791,107.508636,205.052399,177.110245,163.587021,118.218895,171.389282,99.004562,255.509293,142.987946,155.255539,275.651489,117.364349,131.014420,278.854248,136.725113,109.209579
515,0,142.786285,247.634460,108.844673,198.230896,179.166397,165.169128,111.615829,173.608414,100.131897,248.517548,144.796188,156.880310,268.644653,119.098091,132.621292,271.810822,138.445511,110.862244
516,0,136.081223,249.985077,109.917267,191.320953,181.282364,166.400299,104.882935,175.979630,100.941643,241.487625,146.783493,158.086838,261.605255,121.055252,133.791931,264.734131,140.386261,111.981178
517,0,129.261978,252.395065,110.695976,184.249069,183.521179,167.267883,98.145699,179.046692,101.351715,234.391861,148.914246,158.978683,254.473831,123.186165,134.673370,257.730103,142.658569,112.815216
518,0,122.425896,254.855698,111.155975,177.138184,185.813889,167.835449,91.073784,181.014069,101.725624,227.312454,151.117371,159.668030,247.381882,125.373024,135.353317,250.736710,144.897522,113.440933
519,0,115.472656,257.334778,111.343895,170.082764,188.149673,168.089386,84.177368,183.534317,101.671791,220.270355,153.450333,160.020920,240.367004,127.626884,135.664719,243.854660,147.334213,113.866081
520,0,108.646889,259.721710,111.150261,163.165573,190.440903,167.922272,77.469330,186.514862,101.259064,213.290207,155.720108,160.029114,233.515259,129.687958,135.713272,236.954254,149.674805,113.994667
521,0,102.042030,262.067230,110.714119,156.294098,192.687958,167.402069,70.610855,188.495834,100.627228,206.438736,157.855591,159.679840,226.728455,131.660828,135.392197,230.111740,151.822083,113.601723
522,0,95.598930,264.373749,109.989510,149.704758,194.901489,166.557449,64.008614,190.893646,99.843864,199.735306,159.861221,158.910980,219.793060,133.943451,134.645523,223.425064,153.768509,112.780380
523,0,89.181007,266.680298,109.007629,143.320267,197.015564,165.398438,57.638206,193.755020,98.814178,193.151428,161.776474,157.661865,213.153442,135.782501,133.371384,216.771317,155.646744,111.562256
524,0,82.974739,269.005249,107.820717,137.152954,199.140579,163.931564,51.223618,195.535858,97.606735,186.895004,163.659607,156.048782,206.748383,137.716934,131.657303,210.348145,157.507507,109.878464
525,0,76.803604,271.290192,106.522141,131.096680,201.288071,162.271179,45.229183,198.436691,96.094208,180.807495,165.666809,154.147339,200.618088,139.780823,129.577957,204.211945,159.623840,107.927757
526,0,70.751869,273.541107,105.060432,125.459938,203.391632,160.417816,39.163834,199.997910,94.609070,175.129715,167.811584,151.992249,194.893173,142.039719,127.280373,198.245468,162.016266,105.582016
527,0,64.903557,275.777740,103.585732,120.034386,205.409332,158.419678,33.692257,202.893234,92.778557,169.730438,169.998901,149.678986,189.455215,144.441818,124.764259,192.821976,164.598358,103.156685
528,0,59.294621,277.943451,102.018929,114.895409,207.392807,156.302750,28.136511,204.373230,90.989494,164.740173,172.185547,147.272430,184.549652,146.805420,122.179428,187.712875,167.091187,100.649590
529,0,53.988274,280.025482,100.350517,110.024902,209.389999,154.109802,23.111179,206.365021,89.102386,159.930328,174.422729,144.795273,179.574570,149.145905,119.473785,182.741699,169.676025,98.151382
530,0,49.059326,282.048981,98.583633,105.388435,211.390381,151.855515,18.280090,208.356827,87.118111,155.351364,176.595474,142.305130,175.125809,151.458435,116.894249,178.240616,172.119125,95.507492
531,0,44.307045,283.981903,96.681992,101.138786,213.401764,149.593155,13.736850,210.269028,85.233910,151.067413,178.706604,139.786148,170.772736,153.596039,114.213356,173.899368,174.322250,92.942329
532,0,39.883476,285.885162,94.726807,97.200050,215.373779,147.353577,9.558637,212.144333,83.457085,147.118393,180.737717,137.301300,166.647278,155.769958,111.686455,169.480759,176.544556,90.093109
533,0,35.776138,287.710358,92.882324,93.585770,217.358551,145.218536,5.637272,213.823517,81.758942,143.525192,182.708435,134.905472,162.990372,157.789688,109.189903,165.904343,178.560165,87.864594
534,0,31.976517,289.425171,91.092010,90.354027,219.237167,143.226166,2.124988,215.486679,80.140915,140.321930,184.629471,132.651337,159.769379,159.774643,106.895287,162.476898,180.514664,85.433174
535,0,28.633394,291.019012,89.419212,87.427536,221.112762,141.341156,-1.019518,216.958725,78.687630,137.308289,186.695618,130.521744,156.840225,161.792542,104.793503,159.588486,182.796356,83.570976
536,0,25.614441,292.529266,87.775772,84.876450,222.952850,139.558899,-3.803250,218.379257,77.172165,134.765854,188.668274,128.626816,154.475174,163.796051,103.012955,156.931152,184.545349,81.510612
537,0,22.804180,293.887329,86.152786,82.657768,224.739700,137.837402,-6.173610,219.630478,75.762016,132.829697,190.569687,126.831833,152.384491,165.781982,101.104202,154.785416,186.604691,79.896751
538,0,20.318237,295.122070,84.470573,80.674164,226.518478,136.181381,-8.239213,220.753036,74.344543,131.028229,192.564529,125.176552,150.543167,167.844009,99.451942,152.751328,188.612183,78.137383
539,0,18.205128,296.252808,82.869904,79.022652,228.134491,134.547058,-10.196643,221.858673,73.087273,129.492523,194.410538,123.481461,149.134781,169.716324,97.834450,151.112396,190.457230,76.461021
540,0,16.171087,297.281342,81.309921,77.437973,229.655411,132.961884,-11.848334,222.723862,71.848190,128.070862,196.151337,121.820198,147.655075,171.349152,96.188576,149.505615,192.020645,74.806717
541,0,14.420684,298.202301,79.912582,76.117096,230.942352,131.398849,-13.439661,223.614075,70.751663,126.802757,197.550323,120.184639,146.284546,172.773636,94.562675,148.057404,193.155075,73.030151
542,0,12.641841,299.063660,78.576714,74.813980,232.088699,129.923721,-15.016061,224.384262,69.682739,125.535309,198.773087,118.480995,144.926865,174.083511,92.858810,146.397766,194.551804,71.261711
543,0,10.994757,299.819214,77.452477,73.448074,233.050934,128.577026,-16.542252,225.054306,68.671379,124.183258,199.866135,116.856720,143.403473,175.144333,91.105148,145.070740,195.595947,69.696472
544,0,9.209380,300.524170,76.345612,72.044739,233.889999,127.350273,-18.177652,225.754044,67.668266,122.802017,200.801605,115.361824,142.143936,176.058884,89.618500,143.128128,196.491150,67.978378
545,0,7.501354,301.108185,75.357529,70.591064,234.463821,126.130524,-19.713104,226.232529,66.754021,121.282799,201.445099,114.013695,140.491074,176.799438,88.192368,141.881165,197.318726,66.710381
546,0,5.873762,301.604950,74.400246,69.123093,234.960281,124.978905,-21.281401,226.732544,65.848907,119.776558,201.891190,112.750206,138.937332,177.162033,86.860786,139.992157,197.735840,65.252670
547,0,4.334677,302.006958,73.468727,67.788490,235.283707,123.882164,-22.858143,227.098145,64.998901,118.319954,202.070374,111.481148,137.296783,177.347580,85.656456,138.588806,198.030548,63.876698
548,0,3.099266,302.254578,72.507988,66.581566,235.402603,122.745171,-24.292559,227.461563,64.176186,116.976814,201.960297,110.166237,135.799683,177.111328,84.167702,136.799591,198.035950,62.539639
549,0,1.994448,302.435760,71.603096,65.474457,235.415878,121.609116,-25.561350,227.703354,63.378349,115.661583,201.710617,108.850349,134.220673,176.823685,82.890862,135.443253,197.625198,60.974823
550,0,0.932650,302.515411,70.746223,64.623840,235.299423,120.501610,-26.774868,227.840698,62.555470,114.466385,201.250809,107.501816,132.909088,176.274261,81.371048,134.068939,197.265015,59.605446
551,0,0.042582,302.525757,69.919243,63.803761,235.049667,119.318054,-27.812780,227.892441,61.729668,113.453079,200.812042,106.089729,131.699493,175.927109,80.042938,132.922791,196.907578,58.180996
552,0,-0.675765,302.509644,69.142128,63.016830,234.815933,118.227509,-28.804317,227.895950,60.825031,112.495003,200.414597,104.644348,130.493179,175.477539,78.411682,131.681534,196.416565,56.700909
553,0,-1.413218,302.449432,68.345268,62.248489,234.564209,117.124855,-29.621469,227.947861,59.903385,111.630676,200.093323,103.232590,129.654404,175.140488,76.924347,130.690186,196.164017,55.258919
554,0,-2.194884,302.424133,67.487061,61.603260,234.307938,115.952454,-30.383190,227.974167,58.982418,110.919090,199.779221,101.896149,128.770309,174.759430,75.423515,129.931473,195.930817,54.057964
555,0,-2.802358,302.423889,66.627815,60.982899,234.098526,114.792618,-31.060066,228.046173,57.967049,110.160591,199.420944,100.573853,127.815575,174.435516,74.114532,129.352844,195.855530,52.806324
556,0,-3.588981,302.629822,65.878334,60.428288,233.910721,113.553474,-31.715815,228.108078,57.004070,109.379234,199.092102,99.187340,126.934097,174.101685,72.671295,128.548279,195.541748,51.529453
557,0,-3.925446,302.593018,64.911896,59.944202,233.797241,112.299675,-32.460308,228.209122,56.059929,108.673584,198.782608,97.646759,126.150223,173.815063,71.032440,127.683105,195.467255,50.166180
558,0,-4.707253,302.946716,64.145744,59.461960,233.732193,111.037506,-33.182365,228.458893,55.175823,107.904083,198.466736,95.936607,125.200317,173.632797,69.188629,126.708092,195.438889,47.997116
559,0,-5.275941,303.201569,63.305347,58.911892,233.725327,109.645287,-33.999348,228.848206,54.264500,107.099884,198.255951,94.132584,123.940384,173.519348,67.249855,125.881744,195.588379,46.241680
560,0,-5.939733,303.511871,62.377083,58.362881,233.871994,108.375961,-34.747429,229.290024,53.362530,106.316452,198.202972,92.242134,122.924629,173.611023,65.011444,124.630722,195.848846,44.051075
561,0,-6.770957,303.998535,61.540367,57.765327,234.062149,107.009842,-35.658173,229.806000,52.351505,105.467308,198.305313,90.381454,122.024551,173.840790,62.904984,123.376587,196.206406,41.842808
562,0,-7.546575,304.533386,60.668331,57.142220,234.327148,105.716263,-36.526653,230.279129,51.399677,104.671257,198.591217,88.508652,120.894524,174.307205,60.942009,122.593140,196.811646,40.145538
563,0,-8.347808,305.111847,59.656830,56.269531,235.052383,104.685555,-37.356834,230.920288,50.320705,104.061882,199.462631,87.726608,120.320518,174.750656,60.808041,122.326469,197.980148,39.427391
564,0,-9.223608,305.652405,58.433842,55.421951,236.441452,104.084808,-38.119835,231.455063,49.619144,103.082542,200.545303,87.883659,119.500534,175.404312,60.882446,121.487831,198.540665,39.416767
565,0,-9.969856,306.319763,57.380123,54.681843,237.401489,103.713959,-38.938248,232.063232,49.426563,102.565926,201.741379,87.533424,119.112755,176.570236,60.590168,120.636314,199.423477,39.087650
566,0,-10.733212,307.075806,56.748402,54.085823,238.453110,103.341965,-39.695736,232.714722,49.390118,102.158630,202.923279,87.007408,118.408928,177.331802,60.452404,119.963226,200.435898,38.618774
567,0,-11.449688,307.790619,56.296803,53.618954,239.537933,103.153847,-40.281357,233.287613,49.470001,101.519852,203.815125,86.836784,117.636940,178.040283,60.322891,119.479027,201.260956,38.371471
568,0,-12.080565,308.472229,55.882832,53.223892,240.585953,102.985069,-40.870121,233.869843,49.534500,100.971977,204.748901,86.593079,117.028305,178.859497,60.159615,119.004524,201.929733,38.233829
569,0,-12.679487,309.067688,55.564075,52.817558,241.388824,102.912560,-41.377815,234.433136,49.542454,100.643860,205.614120,86.345718,116.538956,179.565536,60.058357,118.476952,202.631256,38.121166
570,0,-13.257030,309.586395,55.337891,52.401409,242.066513,102.712234,-41.824802,234.843719,49.509247,100.171638,206.172348,86.208771,116.083252,180.005798,60.083542,118.075134,203.259613,38.050758
571,0,-13.803802,310.012238,55.108086,52.014267,242.570801,102.467163,-42.222359,235.127350,49.374329,99.617371,206.445221,86.119560,115.638847,180.231125,60.201103,117.808083,203.709641,38.002392
572,0,-14.144914,310.291260,54.877575,51.754822,242.897873,102.323524,-42.528450,235.337891,49.143658,99.301353,206.675018,85.973389,115.424919,180.511322,60.226982,117.568283,204.014938,37.909760
573,0,-14.358454,310.429688,54.553627,51.601830,243.188522,102.166946,-42.741104,235.514587,48.940620,99.173218,207.017914,85.825363,115.260094,180.726685,60.196384,117.434799,204.137772,37.913383
574,0,-14.407937,310.502594,54.244122,51.524506,243.367081,101.989143,-42.824680,235.561066,48.713604,99.119629,207.199554,85.682274,115.159828,180.839951,60.117958,117.385422,204.085876,37.982361
575,0,-14.428531,310.519531,53.906075,51.523998,243.535446,101.776825,-42.846161,235.614075,48.518486,99.051796,207.291412,85.533226,115.142967,180.874573,60.036964,117.392441,204.116974,37.879818
576,0,-14.392198,310.499420,53.668255,51.538612,243.643372,101.652145,-42.825027,235.563599,48.314457,99.086525,207.407318,85.428474,115.127121,180.964005,59.947948,117.500404,204.300812,37.799633
577,0,-14.451751,310.488159,53.526970,51.540176,243.745758,101.598473,-42.836155,235.560898,48.200428,99.092033,207.496323,85.349632,115.121918,181.048874,59.878696,117.534988,204.579285,37.657864
578,0,-14.573794,310.522919,53.552433,51.491302,243.796753,101.640862,-42.824112,235.508469,48.085461,99.043610,207.581558,85.350098,115.047768,181.173264,59.848778,117.623970,204.795883,37.689766
579,0,-14.767144,310.514709,53.720493,51.389008,243.815781,101.746307,-42.911800,235.538025,47.967243,98.937828,207.645157,85.393433,114.915512,181.351517,59.823505,117.585968,205.136337,37.669559
580,0,-15.037640,310.448639,54.033787,51.262783,243.691254,101.995972,-43.016136,235.442825,47.879124,98.855927,207.745056,85.417923,114.908058,181.607590,59.747150,117.736259,205.794037,37.700291
581,0,-15.437251,310.344086,54.473396,50.934052,243.480408,102.305840,-43.134216,235.329742,47.801098,98.736282,207.784714,85.465767,114.786606,181.833099,59.677937,118.186684,206.463333,38.205753
582,0,-15.911331,310.141937,55.091740,50.542137,243.197571,102.708572,-43.422894,235.138596,47.873749,98.441483,207.693726,85.655998,114.741943,182.119019,59.875122,118.991333,207.701645,39.501156
583,0,-16.564861,309.896118,56.033936,49.951508,242.600769,103.396729,-43.824333,234.943451,48.178680,98.014633,207.457886,85.944756,114.497208,182.302567,59.998386,119.434326,209.038177,40.703918
584,0,-17.505150,309.601288,57.446388,49.374542,241.845490,104.393227,-44.333302,234.572174,48.837597,97.493103,207.054138,86.299522,114.115746,182.423981,60.202446,119.910141,210.285873,42.227493
585,0,-18.492393,309.247559,59.309376,48.660175,240.829147,105.659393,-44.951534,234.193329,49.813927,96.853706,206.423325,86.785896,113.634506,182.391632,60.446526,120.470352,211.436966,44.520229
586,0,-19.572590,308.801575,61.612984,47.883850,239.652374,107.441086,-45.666695,233.758240,51.153114,96.071884,205.597427,87.499092,112.917114,182.453308,60.723671,120.799614,212.555359,47.145557
587,0,-20.593092,308.223938,64.227264,47.114952,238.444656,109.486740,-46.288834,233.088135,52.736736,95.211121,204.623734,88.536606,111.848869,182.415146,61.318802,121.222023,213.676865,50.518360
588,0,-21.672335,307.516113,66.978081,46.318344,237.150879,111.941467,-46.682896,233.032944,54.427223,94.327400,203.483795,89.648430,110.814171,182.478394,62.074505,121.690109,214.931915,54.467983
589,0,-22.552113,306.652557,69.805824,45.704014,235.778275,114.696617,-47.024231,231.351395,56.367832,93.551689,202.298080,91.086357,109.738548,182.217712,63.023613,122.148956,216.144012,58.654865
590,0,-23.326242,305.682129,72.720490,45.032494,234.404266,117.570503,-47.095222,231.173233,58.018372,92.970848,201.388321,92.959602,109.454147,182.190247,64.092606,122.758842,217.800552,63.151428
591,0,-23.912144,304.559692,75.563385,44.582832,233.126282,120.482819,-46.906841,229.950165,59.811447,92.831673,200.890228,95.272697,109.352470,182.285416,66.211143,123.437401,218.435104,67.791687
592,0,-24.351446,303.244629,78.223663,44.207840,231.935181,123.564072,-46.686569,228.222717,61.709896,92.895271,200.376053,98.284599,109.964508,182.191574,69.429771,123.959129,218.722931,72.411842
593,0,-24.537577,301.791046,80.708885,43.781582,230.668579,126.662910,-46.207588,226.649551,63.758343,93.197998,199.638092,102.188118,111.226738,181.894669,74.044113,124.597282,218.624893,77.215042
594,0,-24.587788,300.041962,83.022102,43.333813,229.259399,129.792267,-45.881981,224.986313,65.937759,93.697708,198.758728,106.593643,112.561760,181.206085,79.387825,125.069382,217.804672,82.232040
595,0,-24.410624,298.041931,85.233795,42.992195,227.571762,133.012955,-45.498981,223.348129,68.179230,94.065155,197.553421,111.139977,113.818649,180.161011,84.718811,125.526413,216.253906,87.193687
596,0,-24.101171,295.735504,87.370071,42.661602,225.496353,136.228394,-45.218025,220.407715,70.667961,94.323692,195.848511,115.670677,114.722450,178.343903,90.044624,125.893105,213.987762,92.133781
597,0,-23.862740,293.094849,89.388763,42.207722,223.136215,139.466278,-45.066772,217.831665,73.166946,94.337944,193.539856,120.123459,115.418724,176.353210,94.945320,126.032722,211.076324,96.959801
598,0,-23.472456,290.171875,91.374802,41.745575,220.381592,142.597977,-45.009705,214.812241,75.574615,94.118530,190.622101,124.441330,115.824265,173.145813,100.007988,125.967789,207.504990,101.627403
599,0,-23.082836,286.944702,93.288162,41.141224,217.238525,145.621719,-45.065948,211.533112,77.975761,93.672699,187.056625,128.575928,115.618286,169.291885,104.508873,125.712471,203.197800,106.019638
600,0,-22.633465,283.391235,95.035728,40.433285,213.690140,148.525543,-45.210964,207.856155,80.238708,92.922562,182.968307,132.570190,114.953911,164.740402,108.780540,125.135750,198.161530,110.063995
601,0,-22.185600,279.631226,96.669487,39.647995,209.648529,151.219467,-45.594795,204.252487,82.341141,91.911880,178.288498,136.245850,114.082939,159.737457,112.693024,124.470650,192.711319,113.891609
602,0,-21.689751,275.561432,98.026825,38.798283,205.477173,153.695847,-45.934120,200.320648,84.189148,90.750854,173.216034,139.704865,113.084946,154.061752,116.491524,123.719093,186.388153,117.581902
603,0,-21.311550,271.334717,99.256714,37.795357,201.007782,155.897705,-46.528881,196.296066,85.918655,89.328117,167.686554,142.786133,111.436081,148.102112,119.627319,122.230888,179.879990,120.358604
604,0,-21.010942,266.891266,100.248955,36.782185,196.258835,157.748428,-47.180672,192.201965,87.377281,87.744835,161.857391,145.368240,109.675812,141.802475,122.474625,120.710648,172.802170,122.968063
605,0,-20.811773,262.322723,101.064308,35.720760,191.338333,159.326477,-48.032658,187.884781,88.721008,86.087517,155.871582,147.451019,107.881912,134.603912,124.900139,119.080093,165.517929,125.451637
606,0,-20.796001,257.715332,101.709435,34.584137,186.215302,160.496033,-49.048313,183.488419,89.773018,84.254463,149.663376,149.172974,105.514870,128.210541,126.715569,117.288109,158.063660,127.368126
607,0,-20.870028,252.989944,102.122353,33.408768,181.069901,161.398224,-50.135826,179.130112,90.698746,82.352539,143.351837,150.452301,103.478699,121.715195,128.163788,115.334846,150.496735,128.659714
608,0,-21.036955,248.221710,102.317299,32.181408,175.774811,161.923431,-51.294220,174.799927,91.274254,80.358192,137.079300,151.317383,101.256065,115.026237,129.227493,112.844948,143.365234,129.555756
609,0,-21.388988,243.425766,102.232323,30.948832,170.552567,162.189926,-52.502895,170.340088,91.586136,78.387856,130.903671,151.761688,98.806946,108.526665,129.672348,110.988403,135.739532,129.969025
610,0,-21.777445,238.586151,101.868408,29.603298,165.284393,162.120911,-53.701576,165.866867,91.248238,76.512123,124.911736,151.837479,96.497124,102.281403,129.809555,108.731636,128.854538,130.083496
611,0,-22.285379,233.742157,101.161896,28.292553,160.126923,161.754593,-54.995617,161.531036,91.049355,74.674362,119.091972,151.554214,94.587311,96.165848,129.592163,106.538742,122.535362,129.873398
612,0,-22.812880,228.980682,100.170746,26.977259,154.959549,161.081619,-56.182961,157.764648,90.998703,72.946678,113.211617,150.865692,92.422539,90.093216,128.869339,104.642334,115.910149,129.103012
613,0,-23.424332,224.283157,98.928406,25.697115,149.999664,160.037323,-57.392330,152.647217,90.662926,71.113792,107.721024,149.928665,90.124474,84.207130,127.873795,102.721390,109.726181,128.119125
614,0,-23.999054,219.732819,97.505394,24.492399,145.104736,158.760147,-58.816875,148.817245,89.308746,69.298798,102.170433,148.624893,87.987381,78.293327,126.529037,100.990234,103.620361,126.712921
615,0,-24.623756,215.318115,95.917862,23.377136,140.351395,157.244736,-60.071011,145.163086,87.695251,67.533630,96.676323,146.931641,85.758125,72.606987,124.765846,99.048515,97.729927,124.907677
616,0,-25.258287,211.043610,94.239708,22.366383,135.777435,155.529465,-61.452515,140.361908,86.978439,65.819260,91.345566,145.048447,83.594925,67.061722,122.652977,97.245377,92.113098,122.727783
617,0,-26.036793,206.908478,92.536606,21.417006,131.297241,153.694550,-62.745831,136.511169,85.544899,64.271797,86.348915,142.768768,81.604172,61.968639,120.107719,95.385452,86.648872,120.266953
618,0,-26.781021,202.934433,90.716682,20.428123,127.011765,151.747772,-64.014862,132.637054,84.010689,62.892811,81.733864,140.354279,79.778618,57.425358,117.369690,93.701668,81.502464,117.570885
619,0,-27.670092,199.174301,88.910851,19.525558,122.906525,149.648331,-65.200806,128.738495,82.434998,61.837261,77.496689,137.722488,78.400589,53.269539,114.365898,92.041817,76.939812,114.739708
620,0,-28.583410,195.557037,87.036942,18.789385,118.786018,147.389496,-66.452019,125.137047,80.703300,60.866604,73.562263,135.037445,77.452332,49.307564,111.437782,90.788887,72.605232,111.686714
621,0,-29.459902,192.122040,85.049789,17.847210,114.836067,144.999100,-67.509727,121.872513,78.672646,59.900902,69.760437,132.353714,76.174637,45.601967,108.391380,89.711632,68.902809,108.685173
