Trajectories
100
,,sano:Uln,,,sano:MPH3,,,sano:Rad,,,sano:PIP3,,,sano:DIP3,,,sano:DIP4,,,
Frame,Sub Frame,X,Y,Z,X,Y,Z,X,Y,Z,X,Y,Z,X,Y,Z,X,Y,Z
,,mm,mm,mm,mm,mm,mm,mm,mm,mm,mm,mm,mm,mm,mm,mm,mm,mm,mm
1,0,133.279816,212.992340,86.130821,217.050827,155.434555,100.992760,113.827179,133.224625,85.501129,266.700470,132.976807,75.123604,286.335815,116.991966,47.896385,281.087891,149.254059,37.677547
2,0,133.139053,212.312286,85.667114,217.016632,155.418121,100.989166,113.827171,133.224655,85.501129,266.681183,132.981369,75.120850,286.295258,116.984177,47.892311,281.034119,149.269775,37.700512
3,0,133.104965,212.320892,85.643059,217.016632,155.417374,100.989403,113.801140,133.208557,85.495537,266.667969,132.970810,75.118202,286.280212,116.981003,47.892464,281.062775,149.257919,37.726158
4,0,133.092957,212.314011,85.650070,216.991653,155.430222,100.988373,113.772980,133.207153,85.498062,266.664795,132.960785,75.124825,286.227997,116.983261,47.881149,281.019409,149.265366,37.714020
5,0,133.077271,212.337753,85.645645,216.980667,155.445404,100.964836,113.792488,133.223785,85.469727,266.655609,132.976944,75.116600,286.224121,116.988625,47.872799,281.011749,149.241104,37.709091
6,0,133.087997,212.317642,85.658028,216.984528,155.473618,100.964890,113.775223,133.233704,85.481262,266.658478,133.000610,75.104393,286.223206,117.006195,47.885239,281.004700,149.203796,37.699497
7,0,133.115341,212.326706,85.643883,216.980484,155.471237,100.991493,113.781982,133.256195,85.475853,266.656616,132.991226,75.128143,286.215515,117.001854,47.920620,280.991882,149.225616,37.699615
8,0,133.092133,212.313431,85.649048,216.975983,155.478973,100.993950,113.775826,133.325974,85.468430,266.653564,132.982559,75.171333,286.292328,117.020882,47.947659,280.818024,148.685654,37.498085
9,0,133.094955,212.328812,85.651642,216.997742,155.475861,101.011299,113.786980,133.338730,85.472519,266.674438,132.979416,75.198326,286.267181,116.967285,47.983978,280.971375,149.103134,37.659294
10,0,133.133575,212.341278,85.643570,216.995499,155.497498,101.020432,113.819839,133.328445,85.470039,266.678589,132.993607,75.219391,286.294067,116.979965,48.036762,281.014923,149.083603,37.643669
11,0,133.118301,212.337448,85.625427,217.003372,155.526855,101.013489,113.822815,133.374985,85.456619,266.669403,133.002533,75.256233,286.311646,116.977219,48.054649,280.975983,149.074417,37.614853
12,0,133.125458,212.355484,85.639252,217.009720,155.546677,101.006325,113.822021,133.363342,85.449654,266.674957,132.993622,75.260376,286.293518,116.969894,48.056747,281.000488,149.048645,37.647659
13,0,133.094864,212.368240,85.645737,217.012848,155.550949,101.008926,113.794540,133.403595,85.460144,266.661407,133.040649,75.238365,286.306396,117.009537,48.041969,280.993378,149.045944,37.639267
14,0,133.116684,212.342865,85.636230,216.997894,155.539276,100.997932,113.799812,133.413116,85.457703,266.646484,133.062378,75.209915,286.295166,117.058800,47.993351,280.971680,149.047531,37.607700
15,0,133.093536,212.324829,85.632790,217.005615,155.542160,100.972488,113.807137,133.421143,85.442879,266.657745,133.092560,75.135490,286.273682,117.097534,47.935307,280.963440,149.077744,37.599785
16,0,133.134644,212.324570,85.624496,216.992279,155.521423,100.952606,113.787704,133.401520,85.435722,266.655060,133.037491,75.129013,286.278778,117.066269,47.902332,280.803650,148.741898,37.447247
17,0,133.096512,212.311935,85.639091,216.986984,155.487823,100.941086,113.777840,133.411758,85.414780,266.647919,132.997559,75.087273,286.270996,117.045944,47.876438,280.797058,148.727127,37.458309
18,0,133.075119,212.326538,85.656143,216.955048,155.460266,100.935280,113.774368,133.412674,85.405533,266.635651,132.970169,75.060280,286.252380,117.016617,47.866539,280.826111,148.690598,37.473679
19,0,133.066360,212.291138,85.658760,216.944092,155.437271,100.935928,113.804291,133.352859,85.417953,266.621277,132.954285,75.078049,286.253265,116.977554,47.884960,280.815826,148.684616,37.467945
20,0,133.073944,212.278275,85.673775,216.952911,155.423889,100.926109,113.794418,133.363953,85.396835,266.595520,132.936768,75.081802,286.275146,116.961281,47.883965,280.814941,148.682800,37.461418
21,0,133.088440,212.275681,85.657005,216.965820,155.396881,100.934677,113.788185,133.368515,85.384338,266.599030,132.911774,75.103378,286.252258,116.921730,47.911694,280.832764,148.656738,37.473328
22,0,133.088242,212.275772,85.656815,216.946289,155.419525,100.953117,113.793259,133.364960,85.367691,266.585907,132.892456,75.125252,286.230835,116.874992,47.931915,280.814728,148.657455,37.482430
23,0,133.084015,212.282288,85.682587,216.940552,155.408859,100.954475,113.784943,133.353378,85.383011,266.612793,132.865997,75.152649,286.258057,116.849403,47.942760,280.812744,148.657516,37.503033
24,0,133.100204,212.269470,85.678551,216.951752,155.410751,100.954842,113.803391,133.358734,85.388603,266.609589,132.858734,75.152382,286.253723,116.853172,47.947598,280.821045,148.664597,37.497055
25,0,133.116119,212.268784,85.670715,216.951462,155.416702,100.973923,113.808319,133.352234,85.398514,266.588531,132.868607,75.156059,286.258789,116.880608,47.962620,280.821686,148.670731,37.495304
26,0,133.072006,212.294174,85.668007,216.960022,155.406128,100.981392,113.802818,133.355698,85.389465,266.590637,132.869202,75.163521,286.245972,116.894981,47.964474,280.782593,148.709885,37.463253
27,0,133.071823,212.298004,85.684311,216.954498,155.414261,100.979065,113.808990,133.356079,85.397614,266.598480,132.884735,75.180420,286.258514,116.891304,47.987659,280.829468,148.702148,37.491768
28,0,133.060944,212.292038,85.668076,216.943451,155.417984,100.967194,113.808144,133.352448,85.398514,266.602692,132.906418,75.188446,286.240601,116.880722,48.001026,280.957916,148.998062,37.609226
29,0,133.091690,212.291382,85.659325,216.943390,155.425888,100.974594,113.807281,133.354446,85.397621,266.615173,132.934967,75.215538,286.268402,116.927490,48.017529,280.819000,148.710953,37.493805
30,0,133.090958,212.291397,85.659477,216.940811,155.428345,100.982536,113.740044,133.395020,85.377678,266.596283,132.967026,75.224304,286.270996,116.937706,48.039993,280.811127,148.716019,37.469688
31,0,133.066193,212.291260,85.659035,216.941986,155.448013,100.996315,113.741203,133.382401,85.401199,266.582153,132.958939,75.250992,286.267273,116.921814,48.078323,280.789581,148.713165,37.486298
32,0,133.085648,212.291962,85.669609,216.930710,155.452454,101.020592,113.730827,133.401428,85.399406,266.596893,132.941010,75.263657,286.248993,116.927078,48.090988,280.779541,148.717514,37.519821
33,0,133.080841,212.296051,85.677628,216.918488,155.428848,101.035294,113.728470,133.406235,85.395737,266.591278,132.913345,75.281204,286.257660,116.877838,48.124264,280.789459,148.706268,37.534233
34,0,133.061752,212.298615,85.686462,216.900223,155.418808,101.019646,113.735664,133.409119,85.395340,266.563141,132.913620,75.302193,286.241913,116.867119,48.138233,280.792236,148.692307,37.541786
35,0,133.089554,212.305954,85.671974,216.876709,155.406250,101.029678,113.705582,133.393051,85.392715,266.565582,132.877655,75.302200,286.245514,116.878067,48.121288,280.761047,148.683685,37.531891
36,0,133.040466,212.280365,85.717049,216.883499,155.380569,101.037064,113.693085,133.363373,85.398766,266.560822,132.877228,75.292747,286.240723,116.847404,48.145172,280.761871,148.686829,37.540627
37,0,133.045807,212.278366,85.715439,216.897324,155.389755,101.037483,113.700417,133.367615,85.397545,266.545227,132.857727,75.356331,286.234894,116.844330,48.165577,280.753357,148.684296,37.553089
38,0,133.006836,212.300064,85.711830,216.854584,155.393127,101.062714,113.680382,133.368683,85.441101,266.533356,132.881561,75.353935,286.229126,116.856064,48.204605,280.749359,148.684814,37.566895
39,0,133.006729,212.307343,85.746414,216.862350,155.397324,101.082390,113.674820,133.365936,85.434166,266.504517,132.865463,75.403259,286.221832,116.852478,48.246632,280.742065,148.681320,37.607971
40,0,132.997040,212.305069,85.728188,216.849152,155.407700,101.100395,113.653763,133.359802,85.416046,266.493378,132.905090,75.409531,286.226868,116.881142,48.291027,280.733215,148.703293,37.625168
41,0,132.963699,212.291626,85.746796,216.812424,155.414856,101.144142,113.628136,133.407593,85.390045,266.493683,132.903397,75.462257,286.237610,116.878761,48.343327,280.660278,148.717422,37.571938
42,0,132.991776,212.254822,85.772026,216.816376,155.413635,101.168594,113.613258,133.390106,85.419991,266.490784,132.912552,75.528221,286.221832,116.908478,48.408485,280.674347,148.710083,37.613373
43,0,132.928513,212.278671,85.803345,216.790756,155.429031,101.213173,113.630569,133.380814,85.441216,266.481628,132.908005,75.568420,286.230652,116.913918,48.466469,280.686188,148.697403,37.637432
44,0,132.929047,212.286270,85.819160,216.787369,155.430634,101.253700,113.601418,133.406448,85.458694,266.510406,132.890091,75.648598,286.241394,116.895065,48.509327,280.688629,148.705002,37.659935
45,0,132.926559,212.268234,85.806541,216.770508,155.417313,101.261810,113.617241,133.403091,85.457291,266.480286,132.869217,75.674477,286.232635,116.894592,48.530731,280.674805,148.706680,37.647476
46,0,132.926514,212.268036,85.806778,216.769455,155.428955,101.264488,113.597641,133.401428,85.463310,266.468597,132.889359,75.678612,286.222473,116.876442,48.560436,280.777252,149.002487,37.776455
47,0,132.951782,212.268433,85.807167,216.771606,155.437286,101.276054,113.599197,133.399246,85.460503,266.493286,132.873154,75.687531,286.245056,116.874741,48.587914,280.642517,148.702774,37.660679
48,0,132.954636,212.261551,85.838875,216.764374,155.433716,101.275841,113.606583,133.395813,85.469360,266.482635,132.862671,75.691917,286.248810,116.874794,48.611179,280.656799,148.696213,37.712166
49,0,132.940964,212.247421,85.834671,216.745682,155.429520,101.276520,113.587540,133.421021,85.486809,266.462463,132.903580,75.713562,286.293060,116.912010,48.620277,280.640869,148.702209,37.697372
50,0,132.927963,212.239426,85.834053,216.730667,155.424149,101.286224,113.528320,133.403732,85.477623,266.448944,132.904724,75.713623,286.297577,116.925819,48.650055,280.628052,148.693954,37.681572
51,0,132.924896,212.247925,85.812431,216.732834,155.415543,101.312355,113.525146,133.404938,85.498703,266.433105,132.922424,75.744408,286.283203,116.916527,48.676334,280.622620,148.731537,37.669563
52,0,132.915863,212.253708,85.838364,216.711578,155.437637,101.325172,113.524979,133.404526,85.498230,266.428619,132.911270,75.766731,286.281342,116.931023,48.727562,280.629059,148.713821,37.716934
53,0,132.905228,212.271118,85.875931,216.689758,155.453934,101.344955,113.526054,133.399643,85.498833,266.415924,132.914337,75.806770,286.316132,116.926155,48.771847,280.620178,148.716904,37.717808
54,0,132.904861,212.271484,85.855904,216.686020,155.467239,101.343971,113.487289,133.446686,85.508423,266.413849,132.906845,75.852745,286.290833,116.910553,48.803036,280.751556,149.017929,37.872681
55,0,132.875000,212.275482,85.864449,216.686081,155.460648,101.363075,113.438622,133.421707,85.545517,266.424988,132.917923,75.842751,286.333862,116.879631,48.858120,280.592712,148.724533,37.745598
56,0,132.875427,212.275620,85.864403,216.661484,155.454788,101.383888,113.446655,133.452423,85.555344,266.413544,132.909637,75.870605,286.324829,116.886467,48.835686,280.570251,148.712921,37.749508
57,0,132.864227,212.272858,85.846581,216.678604,155.450470,101.388771,113.443192,133.433334,85.580917,266.394348,132.896744,75.862923,286.294403,116.872787,48.880325,280.565918,148.712463,37.747467
58,0,132.875381,212.275574,85.864571,216.677658,155.450394,101.409363,113.434807,133.417404,85.583298,266.381592,132.884354,75.891647,286.312988,116.853516,48.896854,280.569214,148.680145,37.761452
59,0,132.888443,212.246216,85.872421,216.689346,155.435745,101.399200,113.468178,133.438416,85.579918,266.406586,132.857819,75.873940,286.297882,116.843086,48.863609,280.590363,148.673889,37.757275
60,0,132.908127,212.250153,85.881073,216.684937,155.415146,101.367554,113.453995,133.387665,85.538681,266.419281,132.852768,75.872131,286.320007,116.831566,48.855976,280.582458,148.668442,37.750813
61,0,132.888596,212.246170,85.872574,216.681534,155.399277,101.362724,113.476479,133.438049,85.536125,266.407898,132.837875,75.841103,286.309357,116.801010,48.806988,280.593903,148.654007,37.714859
62,0,132.854767,212.253799,85.830490,216.679016,155.394470,101.358322,113.498238,133.366180,85.520584,266.409790,132.817596,75.818657,286.301819,116.788933,48.781898,280.598999,148.652069,37.709793
63,0,132.916931,212.246918,85.858147,216.694839,155.376373,101.322395,113.504585,133.368011,85.519272,266.410492,132.821274,75.810974,286.328918,116.771080,48.792831,280.597321,148.651443,37.692699
64,0,132.913254,212.264633,85.843384,216.698410,155.361832,101.325851,113.535141,133.383911,85.529739,266.415314,132.821320,75.809349,286.315552,116.777054,48.796921,280.609985,148.643784,37.706146
65,0,132.855255,212.259872,85.866631,216.713959,155.384109,101.363991,113.513962,133.405502,85.534767,266.426727,132.826828,75.830757,286.290710,116.792221,48.790527,280.588501,148.645813,37.705479
66,0,132.872620,212.267883,85.851608,216.692001,155.380417,101.365005,113.514702,133.365982,85.530724,266.407806,132.843552,75.836685,286.290771,116.799080,48.823662,280.592041,148.652542,37.734917
67,0,132.873154,212.265762,85.834084,216.684143,155.398666,101.367096,113.478386,133.413513,85.518867,266.411499,132.835632,75.866859,286.284851,116.817680,48.833530,280.585999,148.673920,37.741661
68,0,132.839127,212.267151,85.838455,216.676422,155.401810,101.382423,113.470100,133.409119,85.532829,266.400940,132.843552,75.873024,286.299164,116.838806,48.886539,280.561646,148.687714,37.754436
69,0,132.836868,212.289902,85.885864,216.668503,155.443100,101.414558,113.450531,133.434723,85.548340,266.375885,132.867249,75.936371,286.291412,116.839317,48.914093,280.563721,148.676285,37.792732
70,0,132.798706,212.299149,85.863564,216.666046,155.445663,101.440742,113.450752,133.438828,85.548141,266.364014,132.870193,75.952202,286.283203,116.831680,48.950817,280.545319,148.677078,37.792278
71,0,132.803955,212.298050,85.875397,216.620377,155.488770,101.433258,113.423622,133.436554,85.570427,266.363190,132.884659,75.951797,286.260101,116.859215,48.951950,280.509796,148.684753,37.788876
72,0,132.817902,212.316650,85.895065,216.625565,155.503616,101.415108,113.434547,133.463074,85.565262,266.360474,132.921753,75.945297,286.276001,116.881805,48.977959,280.513123,148.685349,37.791679
73,0,132.807022,212.313797,85.857246,216.606003,155.499542,101.427124,113.438126,133.449036,85.579811,266.356903,132.929672,75.949661,286.301971,116.881310,48.997089,280.516144,148.715179,37.791641
74,0,132.801514,212.314682,85.866402,216.605438,155.517365,101.431114,113.472420,133.457520,85.560608,266.350128,132.938995,75.953186,286.288971,116.913879,48.969479,280.504059,148.708481,37.803432
75,0,132.799072,212.299301,85.862473,216.596359,155.530136,101.420227,113.431274,133.449203,85.569366,266.365662,132.940018,75.972549,286.279602,116.924339,49.002697,280.484955,148.711060,37.800831
76,0,132.807587,212.321014,85.892632,216.606155,155.512772,101.422951,113.429581,133.456009,85.567291,266.361694,132.941452,75.978394,286.269379,116.910759,49.002010,280.614166,149.011292,37.908550
77,0,132.782608,212.315247,85.855843,216.604279,155.512283,101.423500,113.422203,133.439056,85.570076,266.333099,132.951828,75.975471,286.258820,116.911743,48.983204,280.608643,149.017975,37.927643
78,0,132.772263,212.318726,85.874794,216.600220,155.506882,101.422150,113.422348,133.436935,85.570656,266.316193,132.950394,75.975235,286.265320,116.926994,48.978592,280.479919,148.719971,37.814018
79,0,132.766312,212.315338,85.887192,216.595642,155.473343,101.442299,113.417427,133.432343,85.568619,266.304626,132.912933,75.979004,286.276276,116.904350,49.015957,280.473938,148.712402,37.818924
80,0,132.804459,212.306305,85.863930,216.590057,155.483032,101.449341,113.369141,133.435806,85.569313,266.288483,132.922852,75.974304,286.266510,116.895004,49.027679,280.468292,148.724396,37.826393
81,0,132.805206,212.306152,85.882912,216.584686,155.480530,101.420090,113.388916,133.483566,85.564056,266.304932,132.934265,75.969582,286.264984,116.866653,48.992599,280.511627,148.687775,37.828876
82,0,132.793411,212.303604,85.846245,216.610504,155.501022,101.419662,113.397682,133.457703,85.572884,266.308807,132.935272,75.976891,286.271759,116.901360,48.992512,280.505035,148.698959,37.811085
83,0,132.774689,212.306992,85.853592,216.598129,155.523880,101.435143,113.393188,133.457794,85.595047,266.308624,132.933533,75.968056,286.244690,116.917442,48.969437,280.486511,148.697113,37.795448
84,0,132.750931,212.317017,85.848846,216.598572,155.526001,101.434937,113.406837,133.484695,85.589203,266.338104,132.965454,75.978424,286.240784,116.925896,48.956211,280.604462,149.003448,37.901958
85,0,132.809540,212.309341,85.871590,216.600357,155.506851,101.423393,113.411713,133.472870,85.578308,266.332733,132.955048,75.959358,286.262939,116.919685,48.982441,280.633087,149.012070,37.913719
86,0,132.772842,212.296127,85.856018,216.617996,155.504623,101.427155,113.434631,133.445190,85.577797,266.343842,132.937302,75.932556,286.329041,116.926880,48.994671,280.528107,148.684311,37.784996
87,0,132.742477,212.293137,85.828873,216.622955,155.499008,101.422188,113.434303,133.449295,85.577103,266.351746,132.934723,75.919334,286.290070,116.909439,48.980614,280.650909,148.984543,37.900139
88,0,132.781967,212.288956,85.858749,216.610260,155.507080,101.432953,113.434425,133.447968,85.576889,266.347809,132.942780,75.941231,286.283356,116.929459,48.951118,280.514038,148.693481,37.778271
89,0,132.777710,212.298996,85.846375,216.619949,155.489700,101.438705,113.439957,133.429871,85.602966,266.348328,132.902527,75.935257,286.299561,116.917236,48.948013,280.526093,148.678696,37.779629
90,0,132.789856,212.289337,85.865242,216.656906,155.454727,101.409073,113.435921,133.450500,85.576477,266.350922,132.905060,75.916840,286.278778,116.867165,48.901821,280.487915,148.652466,37.779572
91,0,132.778748,212.292999,85.883369,216.646027,155.448853,101.418167,113.432602,133.400192,85.587189,266.342163,132.865479,75.925819,286.265198,116.857689,48.906601,280.524567,148.651703,37.793427
92,0,132.790558,212.295166,85.900444,216.625839,155.454468,101.419601,113.432648,133.405045,85.610672,266.340240,132.863297,75.932358,286.262726,116.837807,48.918690,280.475677,148.655685,37.783875
93,0,132.753525,212.293442,85.862755,216.612747,155.445969,101.437767,113.402534,133.460587,85.601913,266.333221,132.872482,75.943565,286.238647,116.831993,48.909000,280.477234,148.651382,37.765900
94,0,132.791214,212.273010,85.854240,216.616318,155.451645,101.424194,113.401939,133.458878,85.602287,266.334351,132.861404,75.912964,286.242706,116.821991,48.894001,280.498138,148.636383,37.750443
95,0,132.783630,212.285721,85.838318,216.622940,155.453827,101.435287,113.431099,133.428757,85.608437,266.344391,132.863388,75.892403,286.246643,116.813644,48.917103,280.475739,148.650116,37.759689
96,0,132.737900,212.299911,85.854065,216.620102,155.455688,101.430939,113.418007,133.461426,85.593208,266.326172,132.860992,75.927002,286.217529,116.828156,48.902092,280.509338,148.630478,37.797913
97,0,132.755737,212.314636,85.867767,216.611679,155.454773,101.418083,113.419800,133.463959,85.592545,266.326813,132.860565,75.931160,286.273773,116.818245,48.925285,280.492828,148.644226,37.794983
98,0,132.775635,212.302216,85.851753,216.637253,155.473022,101.419250,113.437569,133.479752,85.574974,266.350800,132.877518,75.948364,286.269409,116.810287,48.925945,280.509216,148.642059,37.782555
99,0,132.793625,212.294296,85.865257,216.638779,155.477478,101.422966,113.441940,133.472336,85.577019,266.356934,132.878540,75.942078,286.274292,116.834747,48.936462,280.510742,148.667984,37.775414
100,0,132.765167,212.316696,85.848885,216.615967,155.483978,101.448692,113.416565,133.471375,85.581856,266.342377,132.876282,75.937096,286.227173,116.858688,48.914196,280.479065,148.668716,37.784523
101,0,132.741455,212.320343,85.885704,216.637131,155.503479,101.440666,113.406578,133.460678,85.597145,266.335236,132.904800,75.950661,286.260956,116.847839,48.952713,280.509186,148.668900,37.809586
102,0,132.788696,212.310394,85.890923,216.643341,155.498596,101.458801,113.413620,133.472763,85.581535,266.345398,132.914017,75.933617,286.237610,116.836761,48.944687,280.486938,148.659912,37.817677
103,0,132.803802,212.305984,85.845261,216.618820,155.496078,101.429649,113.415741,133.470779,85.582184,266.327423,132.920792,75.931641,286.223114,116.847351,48.894722,280.500580,148.676239,37.779182
104,0,132.773788,212.303162,85.836189,216.608368,155.476730,101.417114,113.413582,133.475998,85.577904,266.317810,132.876160,75.898911,286.199646,116.841911,48.882576,280.487732,148.661438,37.765568
105,0,132.750534,212.288956,85.850899,216.600800,155.440628,101.443047,113.403053,133.453690,85.581787,266.311707,132.860596,75.925858,286.195465,116.826363,48.901745,280.462830,148.667465,37.790508
106,0,132.736954,212.276138,85.878754,216.591049,155.428406,101.454781,113.393845,133.458099,85.570175,266.304230,132.837616,75.927689,286.230713,116.791672,48.947067,280.461548,148.639542,37.804039
107,0,132.775970,212.247879,85.881477,216.591873,155.410889,101.435211,113.392693,133.457413,85.571159,266.284912,132.800751,75.912308,286.195007,116.767975,48.901932,280.469299,148.627289,37.789566
108,0,132.757080,212.251083,85.888733,216.577988,155.392242,101.432777,113.368813,133.421616,85.597092,266.286621,132.813202,75.925163,286.206665,116.742592,48.933327,280.470642,148.608673,37.786175
109,0,132.759933,212.240189,85.884544,216.576797,155.395782,101.430855,113.361771,133.388733,85.617332,266.279236,132.799179,75.923706,286.168671,116.718689,48.923424,280.453583,148.598587,37.798866
110,0,132.749039,212.249039,85.902481,216.579514,155.395248,101.434410,113.368134,133.378387,85.605942,266.275482,132.798141,75.929573,286.146606,116.701469,48.937889,280.600677,148.849823,37.964737
111,0,132.750656,212.248489,85.932030,216.589737,155.400558,101.443375,113.369301,133.428207,85.595833,266.285614,132.789459,75.940224,286.141449,116.704636,48.885689,280.455841,148.596329,37.804497
112,0,132.752121,212.270828,85.913742,216.588791,155.398880,101.442902,113.359261,133.418930,85.644333,266.275421,132.790741,75.910995,286.161652,116.712006,48.927990,280.453888,148.592346,37.797359
113,0,132.757004,212.257858,85.906097,216.587326,155.396515,101.447243,113.355278,133.424683,85.640083,266.275330,132.796921,75.929207,286.168671,116.732903,48.920040,280.465607,148.594788,37.808857
114,0,132.744064,212.259918,85.890877,216.589905,155.442993,101.449226,113.378929,133.444916,85.641541,266.286163,132.810501,75.925446,286.174805,116.740234,48.923080,280.479919,148.613602,37.815262
115,0,132.735443,212.258102,85.870056,216.595627,155.427490,101.437256,113.378616,133.445999,85.641151,266.293213,132.822906,75.914246,286.185730,116.768089,48.908772,280.452087,148.621964,37.803276
116,0,132.740112,212.257477,85.861015,216.585541,155.422989,101.420952,113.376427,133.450333,85.631783,266.293671,132.839920,75.907143,286.212616,116.778496,48.919662,280.458649,148.630020,37.802032
117,0,132.735550,212.261490,85.870811,216.584778,155.431885,101.428185,113.374763,133.446167,85.632881,266.281311,132.857407,75.909904,286.210602,116.771255,48.932835,280.454468,148.623001,37.803219
118,0,132.736328,212.261337,85.888748,216.579651,155.429962,101.429314,113.376854,133.455444,85.630684,266.285278,132.831696,75.935837,286.182220,116.784439,48.941246,280.454041,148.618378,37.812183
119,0,132.758057,212.270142,85.904930,216.586746,155.444382,101.453049,113.342621,133.469940,85.637352,266.282288,132.837769,75.924042,286.154785,116.778969,48.913189,280.459930,148.622604,37.813568
120,0,132.747040,212.267014,85.906113,216.582672,155.430756,101.449760,113.345428,133.474808,85.636078,266.265747,132.823959,75.922836,286.142120,116.753143,48.884441,280.449554,148.614624,37.811237
121,0,132.747238,212.267120,85.905983,216.585480,155.413010,101.437027,113.380516,133.445526,85.641228,266.269531,132.784988,75.941338,286.095856,116.726128,48.873486,280.593445,148.867264,37.954117
122,0,132.737595,212.260345,85.888878,216.573029,155.387878,101.440491,113.391441,133.449661,85.618935,266.274353,132.782394,75.920990,286.108856,116.672340,48.881565,280.591705,148.841583,37.961639
123,0,132.732162,212.260895,85.898972,216.582123,155.392395,101.441086,113.375221,133.445358,85.632904,266.281982,132.766296,75.903343,286.122284,116.698540,48.875317,280.449799,148.575867,37.801132
124,0,132.725830,212.242615,85.854256,216.573776,155.396378,101.418663,113.386375,133.453217,85.606232,266.283020,132.779755,75.877327,286.120819,116.676353,48.854767,280.436188,148.539230,37.772755
125,0,132.725708,212.242813,85.853416,216.592499,155.382645,101.403046,113.384583,133.453171,85.606598,266.298981,132.794540,75.866585,286.135864,116.679237,48.846485,280.438232,148.530075,37.774208
126,0,132.736420,212.245438,85.871857,216.584610,155.392120,101.416412,113.387009,133.452698,85.606209,266.292725,132.776535,75.859856,286.116852,116.676605,48.826363,280.446228,148.533829,37.778831
127,0,132.728729,212.270447,85.874680,216.578995,155.404999,101.420662,113.386238,133.450394,85.610481,266.304291,132.797150,75.890030,286.110870,116.699234,48.872623,280.586365,148.841263,37.930397
128,0,132.783905,212.261353,85.862740,216.593140,155.417786,101.428009,113.388504,133.450272,85.609901,266.305756,132.790192,75.908813,286.168640,116.713181,48.893482,280.445282,148.564255,37.774902
129,0,132.759460,212.272766,85.880104,216.606293,155.437225,101.429588,113.390785,133.446884,85.619240,266.307892,132.793106,75.903976,286.180054,116.722717,48.913857,280.445007,148.564911,37.769066
130,0,132.748825,212.288910,85.891846,216.612427,155.427979,101.442345,113.380516,133.445526,85.641228,266.304779,132.798813,75.915062,286.169830,116.728745,48.896439,280.461426,148.570328,37.781021
131,0,132.771561,212.278992,85.898262,216.608154,155.423859,101.448685,113.385201,133.454041,85.640747,266.301544,132.804962,75.920563,286.188354,116.721443,48.938782,280.602142,148.832733,37.939377
132,0,132.762192,212.286469,85.874207,216.621750,155.435226,101.448517,113.370224,133.449936,85.657860,266.301758,132.791916,75.942543,286.177429,116.722374,48.926952,280.581055,148.867920,37.905766
133,0,132.757034,212.251129,85.888428,216.607330,155.429733,101.454269,113.371101,133.449799,85.663734,266.301361,132.802872,75.944664,286.187469,116.696960,48.964417,280.448792,148.570206,37.777634
134,0,132.767502,212.282318,85.886086,216.607895,155.431961,101.439758,113.372345,133.450729,85.663094,266.298462,132.794907,75.930008,286.161957,116.683205,48.929085,280.427246,148.551773,37.778370
135,0,132.770035,212.297577,85.861115,216.593170,155.423416,101.445328,113.366615,133.451965,85.651421,266.296600,132.794861,75.928474,286.132904,116.717278,48.888885,280.452240,148.567261,37.792110
136,0,132.734894,212.301117,85.877892,216.581665,155.426743,101.435837,113.373268,133.453049,85.662544,266.297791,132.802307,75.917358,286.150208,116.712227,48.921520,280.451263,148.565201,37.785576
137,0,132.726547,212.281677,85.860146,216.584991,155.442032,101.426605,113.392593,133.445282,85.619392,266.268738,132.810837,75.923126,286.147400,116.721748,48.910355,280.434662,148.576660,37.785542
138,0,132.734924,212.301025,85.879219,216.582443,155.446564,101.435555,113.391151,133.448181,85.619080,266.284027,132.801926,75.914352,286.130402,116.738541,48.897282,280.438477,148.580536,37.772873
139,0,132.740311,212.276276,85.891220,216.577820,155.452560,101.426224,113.397484,133.448959,85.627159,266.273773,132.809082,75.910873,286.134308,116.746758,48.905251,280.430573,148.577118,37.786911
140,0,132.751801,212.290665,85.896034,216.573212,155.448868,101.433327,113.390991,133.446686,85.619301,266.274902,132.808411,75.911652,286.141968,116.750839,48.907177,280.427063,148.584045,37.788330
141,0,132.752182,212.290680,85.896156,216.574463,155.429581,101.446739,113.348274,133.445084,85.643204,266.267639,132.811905,75.921524,286.112579,116.737724,48.890957,280.420074,148.580078,37.777676
142,0,132.732178,212.291092,85.885208,216.560135,155.432434,101.442696,113.352493,133.447754,85.642067,266.267670,132.806870,75.918198,286.081696,116.740921,48.880299,280.425964,148.574341,37.797085
143,0,132.744766,212.281921,85.910339,216.548447,155.436325,101.434990,113.349442,133.451843,85.592491,266.256836,132.797470,75.908249,286.067047,116.726814,48.879799,280.411804,148.569199,37.801311
144,0,132.744202,212.281891,85.910568,216.548050,155.419250,101.462914,113.297943,133.425201,85.645233,266.206940,132.760117,75.939285,286.101593,116.680351,48.936771,280.427490,148.550079,37.834423
145,0,132.744720,212.282013,85.909737,216.530640,155.407394,101.478020,113.290108,133.448990,85.669296,266.223328,132.756165,75.946449,286.073486,116.679001,48.956860,280.379150,148.526901,37.829712
146,0,132.721832,212.292297,85.886223,216.535706,155.425903,101.491135,113.249001,133.458923,85.676537,266.198853,132.769775,75.995613,286.036835,116.701073,48.973614,280.344696,148.490067,37.797623
147,0,132.721390,212.292084,85.886711,216.528137,155.424408,101.514236,113.269501,133.446625,85.691032,266.196320,132.798141,75.999863,286.067719,116.704536,49.009922,280.350525,148.439728,37.816246
148,0,132.740891,212.292130,85.895569,216.514282,155.440598,101.528030,113.265747,133.494583,85.671585,266.205444,132.784393,76.017433,286.080627,116.672264,49.031643,280.345123,148.468933,37.805553
149,0,132.758392,212.282730,85.909340,216.541794,155.439835,101.524239,113.291649,133.485550,85.693970,266.262482,132.773697,76.049294,286.144440,116.678925,49.073448,280.364319,148.473343,37.835819
150,0,132.717163,212.307434,85.912025,216.540436,155.457489,101.542274,113.298241,133.486115,85.683411,266.234802,132.802811,76.046188,286.148041,116.691429,49.057247,280.379242,148.480072,37.814697
151,0,132.754730,212.281677,85.872864,216.576324,155.464661,101.524422,113.322578,133.511688,85.680740,266.247986,132.798721,76.029724,286.156982,116.701782,49.038723,280.378937,148.485611,37.784019
152,0,132.745056,212.300034,85.861778,216.592300,155.450912,101.493248,113.335472,133.465454,85.675583,266.278564,132.789413,76.007858,286.129272,116.690872,49.027473,280.525116,148.782257,37.907066
153,0,132.716110,212.292313,85.895386,216.576904,155.426392,101.499619,113.341003,133.490265,85.670090,266.277496,132.776413,76.028725,286.193054,116.683846,49.052166,280.407837,148.480865,37.804340
154,0,132.716934,212.292084,85.915016,216.571518,155.425735,101.504753,113.350555,133.465576,85.675110,266.272949,132.779587,76.025635,286.163605,116.678650,49.075951,280.417847,148.472427,37.827534
155,0,132.691711,212.292389,85.884544,216.581329,155.411743,101.501984,113.342262,133.443542,85.656395,266.268890,132.780640,75.997665,286.113617,116.687218,48.986252,280.391235,148.481506,37.792404
156,0,132.715637,212.288345,85.860344,216.568848,155.404388,101.506561,113.319725,133.463486,85.648369,266.263367,132.779846,75.984215,286.117249,116.674927,48.982079,280.368195,148.483612,37.807293
157,0,132.710480,212.289368,85.869415,216.563644,155.433411,101.503380,113.285881,133.465469,85.654137,266.249542,132.757355,75.998909,286.127991,116.674622,49.015213,280.347443,148.467850,37.804428
158,0,132.667328,212.305267,85.912445,216.524124,155.440216,101.519791,113.293144,133.486237,85.693138,266.201965,132.772049,76.028809,286.063751,116.681931,49.029823,280.359497,148.466537,37.841702
159,0,132.670456,212.319763,85.887474,216.504135,155.455048,101.519112,113.267426,133.473343,85.686836,266.191071,132.815674,76.029953,286.121124,116.694366,49.069504,280.332153,148.471725,37.843372
160,0,132.670410,212.316299,85.870155,216.508026,155.474945,101.520714,113.280266,133.489166,85.692856,266.210602,132.826843,76.064369,286.066010,116.688507,49.074692,280.337555,148.481491,37.826996
161,0,132.647263,212.326096,85.866585,216.485031,155.486374,101.524277,113.281639,133.486954,85.671921,266.196411,132.834244,76.067719,286.110931,116.730225,49.079197,280.335938,148.480209,37.866726
162,0,132.658478,212.329041,85.883591,216.501587,155.529907,101.547226,113.281494,133.496338,85.691261,266.183441,132.850189,76.070282,286.124054,116.742157,49.125748,280.322784,148.512634,37.850986
163,0,132.642410,212.322800,85.879990,216.499725,155.530060,101.567604,113.272675,133.516464,85.686913,266.207550,132.905228,76.114677,286.120850,116.766075,49.174545,280.446716,148.818253,38.013409
164,0,132.692215,212.313263,85.881805,216.494934,155.544373,101.582611,113.279625,133.489777,85.692802,266.191162,132.901459,76.122070,286.156525,116.785355,49.189796,280.353058,148.554932,37.901844
165,0,132.659454,212.328079,85.895302,216.489136,155.543182,101.568985,113.279343,133.495667,85.691917,266.212433,132.891785,76.140915,286.190125,116.771744,49.209190,280.360626,148.555099,37.897369
166,0,132.667542,212.339615,85.868797,216.463852,155.557785,101.572914,113.273422,133.519623,85.686348,266.187195,132.912247,76.115768,286.165070,116.798264,49.189728,280.351471,148.565048,37.905327
167,0,132.640457,212.345795,85.908089,216.476013,155.552322,101.571434,113.274216,133.520172,85.685951,266.201599,132.905182,76.129211,286.141144,116.789284,49.184494,280.351349,148.568710,37.893410
168,0,132.665024,212.330536,85.905037,216.486084,155.543152,101.581436,113.279289,133.494507,85.692192,266.202454,132.913406,76.119034,286.153748,116.772957,49.200390,280.342499,148.559891,37.902931
169,0,132.653336,212.329697,85.891579,216.489883,155.540359,101.575630,113.238609,133.489044,85.716187,266.183228,132.910904,76.117508,286.128510,116.793869,49.160709,280.330627,148.558136,37.881634
170,0,132.686432,212.328888,85.885025,216.489624,155.519073,101.559616,113.241829,133.512070,85.711639,266.169800,132.876663,76.109978,286.118622,116.797462,49.136360,280.301941,148.565048,37.881706
171,0,132.642746,212.330582,85.873589,216.470673,155.503906,101.558762,113.240196,133.508347,85.712555,266.176666,132.886383,76.107414,286.098145,116.794243,49.120705,280.299500,148.564072,37.871742
172,0,132.648346,212.333908,85.900124,216.479202,155.499176,101.538895,113.241379,133.479202,85.693314,266.165649,132.867340,76.092766,286.130920,116.783508,49.143284,280.299286,148.561066,37.859905
173,0,132.642273,212.327896,85.887077,216.474716,155.480392,101.525459,113.266937,133.475937,85.693466,266.191681,132.847549,76.075912,286.096680,116.751427,49.111141,280.329712,148.524002,37.874111
174,0,132.665131,212.327774,85.885933,216.489105,155.483063,101.538223,113.278023,133.489639,85.668907,266.193420,132.854675,76.056068,286.119629,116.756447,49.102238,280.326569,148.525040,37.856998
175,0,132.627243,212.323654,85.867004,216.484604,155.488663,101.536629,113.266762,133.491272,85.690224,266.213135,132.833755,76.079910,286.119476,116.749184,49.104374,280.353424,148.532501,37.855236
176,0,132.650238,212.304413,85.882530,216.487823,155.510269,101.539482,113.262321,133.488876,85.682198,266.213165,132.838943,76.081291,286.102325,116.751945,49.089539,280.335236,148.538086,37.847748
177,0,132.676086,212.319916,85.875862,216.520401,155.496277,101.555023,113.268318,133.507828,85.711090,266.209015,132.878586,76.090958,286.163635,116.762047,49.135208,280.328491,148.537964,37.849697
178,0,132.664291,212.316711,85.879532,216.506058,155.501785,101.562111,113.270332,133.504227,85.711922,266.226868,132.880341,76.097458,286.158051,116.787056,49.151981,280.344757,148.545898,37.840916
179,0,132.670334,212.316071,85.871864,216.507416,155.514923,101.569031,113.273979,133.506134,85.689240,266.226746,132.872574,76.108681,286.168091,116.794525,49.153015,280.349152,148.533142,37.867798
180,0,132.647324,212.325867,85.865791,216.486557,155.531631,101.565765,113.283379,133.514847,85.687675,266.200562,132.872025,76.118050,286.155365,116.798622,49.162376,280.340332,148.567459,37.877338
181,0,132.630066,212.329361,85.893059,216.489990,155.534515,101.547630,113.270897,133.506058,85.711342,266.198792,132.887985,76.111412,286.130005,116.805084,49.158913,280.338074,148.568756,37.894531
182,0,132.634460,212.307343,85.879066,216.499710,155.521454,101.573433,113.265900,133.506821,85.702599,266.210938,132.924316,76.114159,286.122314,116.800743,49.139202,280.342316,148.575317,37.863140
183,0,132.629013,212.303955,85.872215,216.476166,155.528122,101.548271,113.258545,133.491302,85.703896,266.193146,132.918640,76.094597,286.127930,116.800720,49.130642,280.320892,148.563812,37.874737
184,0,132.618271,212.311630,85.888107,216.475189,155.492172,101.550049,113.250923,133.462585,85.687126,266.188904,132.876907,76.098518,286.144836,116.795052,49.132412,280.313995,148.556091,37.877071
185,0,132.646179,212.305115,85.898773,216.468948,155.485840,101.540672,113.255539,133.483002,85.685349,266.196014,132.850891,76.083374,286.098572,116.798477,49.123035,280.310944,148.547104,37.875782
186,0,132.632080,212.299423,85.900963,216.487503,155.491791,101.529205,113.267853,133.476822,85.640778,266.204529,132.844360,76.077072,286.112610,116.776619,49.091347,280.348846,148.530060,37.871109
187,0,132.669693,212.294662,85.882858,216.472183,155.478241,101.521690,113.261032,133.469574,85.655510,266.190338,132.857162,76.062294,286.111298,116.754059,49.077530,280.312012,148.531067,37.842865
188,0,132.645081,212.285919,85.906715,216.458679,155.474579,101.527916,113.273460,133.472244,85.653465,266.184204,132.848846,76.060570,286.111786,116.749748,49.096024,280.299683,148.532516,37.858341
189,0,132.643188,212.302505,85.917953,216.466095,155.505981,101.541435,113.253754,133.483643,85.707268,266.169373,132.866425,76.092278,286.101990,116.765503,49.135990,280.295898,148.537811,37.880104
190,0,132.632141,212.299805,85.900818,216.455368,155.505844,101.559235,113.255287,133.486725,85.706360,266.178589,132.871933,76.115753,286.101379,116.779472,49.141689,280.415070,148.844070,38.011520
191,0,132.656464,212.314301,85.886032,216.470383,155.523727,101.550232,113.249687,133.467224,85.708221,266.172241,132.906235,76.103416,286.114502,116.803650,49.141663,280.320984,148.567871,37.886124
192,0,132.656448,212.313980,85.866951,216.464508,155.533722,101.558235,113.248840,133.466797,85.708244,266.178680,132.910828,76.123405,286.125793,116.832596,49.169182,280.291443,148.573395,37.902916
193,0,132.613785,212.323990,85.895058,216.453552,155.568436,101.592407,113.254616,133.509399,85.677475,266.204315,132.919434,76.142349,286.110474,116.834938,49.184593,280.286621,148.578552,37.910091
194,0,132.656815,212.317535,85.903145,216.449509,155.568069,101.597832,113.221901,133.527832,85.712524,266.185913,132.969879,76.178490,286.107483,116.840309,49.223980,280.437408,148.893677,38.049427
195,0,132.613373,212.323700,85.874352,216.457275,155.568115,101.606361,113.226250,133.530212,85.699333,266.175629,132.940598,76.190544,286.147095,116.859886,49.235027,280.285095,148.599854,37.924355
196,0,132.633087,212.309097,85.909966,216.469498,155.566376,101.611237,113.211365,133.491608,85.704468,266.201721,132.968582,76.185699,286.149628,116.856873,49.248768,280.315918,148.628021,37.922413
197,0,132.607727,212.321259,85.926842,216.453583,155.588760,101.610733,113.219597,133.511719,85.702103,266.158875,132.938751,76.179695,286.126129,116.846169,49.244370,280.310944,148.639038,37.957111
198,0,132.610123,212.330368,85.920502,216.434601,155.565323,101.614914,113.210999,133.497528,85.703384,266.156586,132.936295,76.183792,286.153564,116.846298,49.267105,280.291595,148.626282,37.947834
199,0,132.636703,212.313660,85.900963,216.448074,155.547958,101.611496,113.211937,133.494980,85.703682,266.163605,132.930145,76.187920,286.114197,116.813560,49.252670,280.301208,148.609039,37.961155
200,0,132.629623,212.310974,85.891991,216.413361,155.548431,101.610901,113.188736,133.477432,85.702293,266.153290,132.926224,76.192970,286.129791,116.818588,49.251972,280.291962,148.622864,37.916080
201,0,132.614685,212.317719,85.917290,216.398346,155.525497,101.612602,113.180832,133.467255,85.717445,266.144287,132.906357,76.209061,286.069427,116.803207,49.246998,280.408173,148.926727,38.051922
202,0,132.601959,212.314987,85.900162,216.409775,155.552155,101.619102,113.178093,133.468811,85.708321,266.144623,132.905258,76.211769,286.083466,116.804413,49.274075,280.377808,148.957748,38.046627
203,0,132.609070,212.317703,85.908783,216.414383,155.545822,101.632179,113.179359,133.467239,85.717659,266.131226,132.905319,76.208900,286.114258,116.787865,49.322193,280.237732,148.703888,37.885010
204,0,132.585892,212.327728,85.903946,216.427567,155.556046,101.631676,113.206505,133.489594,85.717880,266.153473,132.921387,76.236008,286.094055,116.829948,49.309555,280.237976,148.729614,37.887344
205,0,132.593719,212.348038,85.925522,216.416824,155.555634,101.653351,113.210213,133.492538,85.725861,266.136414,132.900238,76.245155,286.120148,116.821198,49.360191,280.237183,148.773239,37.889191
206,0,132.600388,212.351639,85.932091,216.415756,155.583588,101.670837,113.187675,133.535934,85.717064,266.148834,132.950531,76.270378,286.101715,116.827995,49.358299,280.224640,148.818954,37.864189
207,0,132.609039,212.364441,85.933167,216.424271,155.595474,101.696831,113.213692,133.467239,85.725601,266.150879,132.947144,76.299095,286.119446,116.828865,49.383549,280.358063,149.120392,37.990784
208,0,132.610184,212.365570,85.935402,216.425430,155.607315,101.684097,113.214516,133.487167,85.758293,266.167389,132.962616,76.310226,286.132996,116.851318,49.394108,280.268494,148.860275,37.868290
209,0,132.601761,212.349457,85.935257,216.411942,155.601303,101.700813,113.214180,133.483337,85.738312,266.161407,132.968643,76.308846,286.120941,116.881683,49.406754,280.392578,149.160004,37.989716
210,0,132.607483,212.370773,85.911354,216.394836,155.626907,101.678635,113.192123,133.510666,85.738365,266.138397,132.999954,76.280136,286.120972,116.873962,49.371635,280.369629,149.166748,37.991283
211,0,132.590286,212.378220,85.938393,216.424469,155.600128,101.685982,113.181946,133.517365,85.717796,266.136566,133.001465,76.274719,286.091431,116.864647,49.353226,280.389648,149.158325,37.993835
212,0,132.593231,212.362015,85.920891,216.405228,155.610367,101.667961,113.176620,133.513245,85.731667,266.153503,132.994370,76.267532,286.158264,116.862381,49.383865,280.230194,148.863373,37.859993
213,0,132.598877,212.364655,85.929855,216.421204,155.591705,101.664665,113.183838,133.517670,85.717560,266.158142,132.981812,76.272575,286.134827,116.850365,49.378826,280.384277,149.158997,37.995735
214,0,132.612183,212.355133,85.952011,216.442535,155.573837,101.673958,113.191505,133.552383,85.732117,266.133362,132.931061,76.263290,286.095367,116.830849,49.355183,280.378601,149.127045,38.011608
215,0,132.612274,212.355270,85.952827,216.441254,155.553589,101.658173,113.189445,133.531967,85.717674,266.143341,132.928986,76.259232,286.133240,116.830780,49.349316,280.280579,148.816559,37.896713
216,0,132.613632,212.354996,85.949654,216.421707,155.549042,101.653099,113.211433,133.505981,85.716568,266.150665,132.904907,76.241219,286.113586,116.809311,49.366219,280.275513,148.790680,37.884068
217,0,132.605881,212.333954,85.969261,216.416840,155.530579,101.669144,113.205872,133.488785,85.718048,266.153717,132.866730,76.267067,286.154755,116.759727,49.400295,280.277161,148.770187,37.922421
218,0,132.594055,212.331284,85.953499,216.403091,155.516098,101.669884,113.183136,133.517517,85.718338,266.130890,132.846344,76.275261,286.102661,116.758057,49.413376,280.279388,148.761444,37.924324
219,0,132.593979,212.328033,85.934967,216.401459,155.520889,101.681900,113.193176,133.512009,85.738777,266.145752,132.843353,76.270020,286.098267,116.776306,49.359138,280.267700,148.743454,37.910145
220,0,132.593582,212.328400,85.913635,216.382401,155.517563,101.669647,113.178627,133.521469,85.709145,266.105377,132.883148,76.281883,286.061737,116.768356,49.369644,280.261627,148.733109,37.927700
221,0,132.591492,212.346222,85.916107,216.393082,155.541199,101.697083,113.168091,133.496140,85.699203,266.119049,132.878067,76.300636,286.021118,116.768509,49.351124,280.381622,148.929382,38.057434
222,0,132.555496,212.341049,85.939087,216.379578,155.548080,101.689285,113.148201,133.517014,85.720978,266.098114,132.884781,76.302521,286.040741,116.757057,49.395966,280.200623,148.650909,37.946144
223,0,132.607086,212.333328,85.956337,216.388901,155.523041,101.691635,113.144791,133.511444,85.734169,266.094116,132.870743,76.308075,286.063904,116.735558,49.410000,280.267303,148.642319,37.955254
224,0,132.585175,212.351822,85.941734,216.391464,155.550125,101.699509,113.150421,133.528458,85.733261,266.113678,132.880722,76.302567,286.073730,116.743713,49.393688,280.233307,148.653183,37.955784
225,0,132.578262,212.333939,85.944290,216.403412,155.540146,101.707932,113.148514,133.531708,85.754990,266.123505,132.882965,76.317398,286.063660,116.726410,49.393742,280.251038,148.657394,37.954002
226,0,132.539307,212.348038,85.965965,216.388229,155.554520,101.709686,113.151619,133.518784,85.722580,266.133148,132.874161,76.334618,286.083405,116.721313,49.424107,280.251831,148.650970,37.981571
227,0,132.558807,212.345230,85.958916,216.390869,155.532928,101.698601,113.160988,133.508469,85.741745,266.132751,132.864273,76.334045,286.118439,116.744476,49.423347,280.256104,148.652039,37.987606
228,0,132.568375,212.337845,85.922981,216.379013,155.519791,101.679482,113.152573,133.505402,85.755142,266.130768,132.875137,76.333115,286.101990,116.719139,49.436752,280.273376,148.644135,37.997707
229,0,132.544189,212.338226,85.920883,216.388474,155.541840,101.698265,113.158249,133.508499,85.741837,266.121429,132.874680,76.332619,286.105835,116.738953,49.451427,280.280060,148.647659,37.994049
230,0,132.557663,212.322952,85.936089,216.365814,155.565125,101.716446,113.149445,133.513794,85.721405,266.121521,132.890671,76.322365,286.084808,116.742462,49.438236,280.391357,148.920151,38.127476
231,0,132.553207,212.323608,85.943932,216.357697,155.555573,101.706535,113.137375,133.542114,85.727539,266.099762,132.883850,76.333847,286.072845,116.749504,49.446346,280.250000,148.649078,38.010410
232,0,132.550690,212.345154,85.948235,216.347427,155.551788,101.725815,113.112206,133.514572,85.728867,266.110077,132.879257,76.379654,286.110321,116.730682,49.503822,280.242188,148.625992,38.021378
233,0,132.550430,212.345123,85.947968,216.362320,155.543213,101.741936,113.125053,133.513168,85.769455,266.098694,132.873337,76.391708,286.082733,116.732277,49.498272,280.257812,148.617493,38.036503
234,0,132.556137,212.347763,85.957275,216.334610,155.548279,101.726288,113.136818,133.556961,85.769035,266.074249,132.868195,76.379944,286.045166,116.718018,49.508289,280.212433,148.609360,38.060802
235,0,132.539108,212.350082,85.929977,216.325912,155.553558,101.724976,113.108292,133.535370,85.769493,266.044159,132.858078,76.386360,286.022827,116.727005,49.504845,280.202698,148.580017,38.052341
236,0,132.534119,212.347351,85.920319,216.326782,155.566223,101.722588,113.095848,133.490616,85.787277,266.055023,132.880829,76.393440,285.973053,116.697334,49.501129,280.322479,148.879303,38.171410
237,0,132.528244,212.377792,85.901199,216.312683,155.575974,101.729675,113.087135,133.533600,85.783188,266.039734,132.898788,76.387688,285.994080,116.701569,49.520565,280.348175,148.861725,38.198410
238,0,132.528091,212.377502,85.901039,216.338745,155.576447,101.741501,113.101768,133.519669,85.812981,266.046295,132.908310,76.408203,286.036987,116.702904,49.547440,280.299957,148.863907,38.166397
239,0,132.532364,212.373444,85.894035,216.312607,155.601593,101.728905,113.100159,133.521973,85.813072,266.047119,132.910934,76.398682,286.012939,116.730125,49.532188,280.153778,148.582764,38.030823
240,0,132.510696,212.384155,85.882469,216.323914,155.587723,101.726074,113.080826,133.548630,85.813683,266.043579,132.916504,76.409004,286.056213,116.731583,49.579277,280.204926,148.567963,38.037476
241,0,132.540634,212.384674,85.873756,216.349686,155.609253,101.733246,113.102501,133.522980,85.812325,266.059937,132.924194,76.400543,286.052277,116.731056,49.537697,280.190674,148.595001,38.031807
242,0,132.548264,212.369492,85.865257,216.345917,155.606781,101.731186,113.102089,133.517670,85.813660,266.069397,132.921143,76.397156,286.053741,116.734161,49.519993,280.249054,148.595184,38.042858
243,0,132.568039,212.370178,85.872948,216.369293,155.614700,101.749474,113.140350,133.525253,85.815666,266.106262,132.928085,76.396118,286.089966,116.735077,49.546455,280.252563,148.598114,38.054695
244,0,132.554657,212.372406,85.907677,216.374008,155.608871,101.753296,113.155350,133.558640,85.811432,266.138763,132.913940,76.408371,286.074066,116.710793,49.532799,280.357483,148.903656,38.168713
245,0,132.523590,212.369644,85.882683,216.390579,155.605637,101.746643,113.158730,133.560059,85.814079,266.114227,132.893066,76.412308,286.072876,116.705399,49.538567,280.365387,148.862747,38.168137
246,0,132.568405,212.348999,85.887444,216.386185,155.607086,101.753410,113.146179,133.542542,85.814156,266.116913,132.892746,76.412247,286.132599,116.721176,49.584038,280.239502,148.572540,38.049755
247,0,132.565506,212.356628,85.878845,216.389206,155.595306,101.763786,113.172295,133.540161,85.810257,266.108215,132.888977,76.426369,286.131989,116.655937,49.607903,280.398712,148.830826,38.208782
248,0,132.590057,212.367889,85.909569,216.375473,155.599472,101.777130,113.146294,133.539581,85.814980,266.088287,132.863632,76.451347,286.094177,116.658035,49.630856,280.251953,148.515625,38.094425
249,0,132.557648,212.392578,85.917603,216.338959,155.585144,101.784302,113.137741,133.561340,85.810181,266.060303,132.862640,76.476830,286.059937,116.657204,49.643482,280.353546,148.784943,38.251846
250,0,132.522293,212.380035,85.868042,216.331757,155.598999,101.776230,113.136574,133.567429,85.805809,266.044495,132.888794,76.451859,286.034363,116.647949,49.629814,280.358582,148.773148,38.219452
251,0,132.529617,212.389236,85.872856,216.337006,155.603989,101.778015,113.124268,133.545975,85.821243,266.044281,132.881958,76.462906,286.018768,116.653862,49.626617,280.158783,148.479584,38.057934
252,0,132.508530,212.399658,85.872078,216.317764,155.623444,101.773232,113.092445,133.583450,85.844193,266.029602,132.897049,76.472855,286.035004,116.661804,49.643612,280.110046,148.476837,38.048515
253,0,132.506516,212.421249,85.892105,216.305222,155.655853,101.796356,113.101921,133.597290,85.821442,266.035309,132.923843,76.484581,285.983887,116.689850,49.611748,280.148285,148.501648,38.096344
254,0,132.495102,212.430542,85.903175,216.282715,155.667175,101.784882,113.056366,133.592194,85.842934,266.011963,132.927109,76.442818,285.964844,116.698921,49.607487,280.275421,148.827454,38.219284
255,0,132.520279,212.439087,85.894791,216.301727,155.677078,101.786720,113.082764,133.588684,85.842468,266.036652,132.935928,76.440308,285.969238,116.722816,49.606792,280.280060,148.866745,38.209808
256,0,132.518539,212.432343,85.878036,216.295975,155.686142,101.777901,113.077156,133.569626,85.829849,266.060883,132.959351,76.478355,285.988342,116.753426,49.587116,280.168823,148.582870,38.074680
257,0,132.513824,212.433182,85.867027,216.310699,155.696747,101.794914,113.093513,133.569611,85.849648,266.055237,132.975082,76.462936,286.000580,116.764542,49.579010,280.155823,148.627335,38.074646
258,0,132.519989,212.435776,85.875290,216.310822,155.706284,101.768188,113.104408,133.569595,85.828384,266.051331,132.988785,76.460442,285.985626,116.791550,49.568508,280.165375,148.637619,38.078064
259,0,132.513748,212.429565,85.849892,216.311996,155.693970,101.756104,113.088303,133.569809,85.846786,266.065948,132.985580,76.448975,286.031555,116.777916,49.607521,280.206757,148.633316,38.066486
260,0,132.513702,212.429565,85.849838,216.322571,155.677460,101.763397,113.096405,133.577911,85.804062,266.083069,132.976044,76.450081,286.028778,116.757309,49.595791,280.200745,148.602753,38.057926
261,0,132.507843,212.429962,85.859184,216.306915,155.691696,101.750748,113.095345,133.594238,85.819595,266.059723,132.966354,76.461929,286.017456,116.747421,49.580067,280.182739,148.598801,38.067169
262,0,132.535843,212.423431,85.852448,216.298660,155.675171,101.758163,113.079918,133.595535,85.835411,266.039734,132.952896,76.434685,285.976990,116.749962,49.578480,280.159119,148.583145,38.056679
263,0,132.526764,212.394714,85.836815,216.310318,155.653336,101.758064,113.084236,133.519836,85.836792,266.039337,132.916092,76.454681,286.006378,116.694077,49.603058,280.189941,148.532394,38.053043
264,0,132.573380,212.397919,85.859886,216.301041,155.664169,101.768692,113.126099,133.585297,85.817360,266.030548,132.918701,76.456223,285.986206,116.677353,49.603329,280.314301,148.804031,38.186005
265,0,132.538239,212.367432,85.865356,216.327957,155.625275,101.750465,113.070122,133.590210,85.842194,266.019135,132.902664,76.452400,285.993408,116.671097,49.599903,280.179047,148.501236,38.074005
266,0,132.533188,212.373749,85.891884,216.298752,155.634674,101.764534,113.104294,133.540359,85.824257,266.055725,132.882141,76.456352,285.910919,116.591232,49.616764,280.104980,148.632690,38.157108
267,0,132.537933,212.373093,85.884094,216.331329,155.597870,101.765366,113.081245,133.566406,85.797203,266.067810,132.899948,76.446648,286.035400,116.633202,49.647160,280.312714,148.753326,38.207741
268,0,132.532440,212.370056,85.875656,216.337173,155.605530,101.748672,113.113434,133.598587,85.793694,266.058929,132.877304,76.447166,285.937500,116.583580,49.632561,280.005585,148.372650,38.035732
269,0,132.526718,212.371094,85.882721,216.321259,155.614975,101.752960,113.096046,133.617722,85.805962,266.041107,132.877075,76.446671,286.014343,116.644508,49.620880,280.314087,148.773880,38.212967
270,0,132.533829,212.407333,85.899689,216.350754,155.616272,101.775780,113.101814,133.619873,85.792641,266.074371,132.882568,76.462364,285.989807,116.649185,49.633495,280.310944,148.773560,38.228222
271,0,132.549561,212.382599,85.883636,216.327988,155.643646,101.776756,113.116234,133.577667,85.807480,266.060791,132.893570,76.506447,286.077515,116.661240,49.656685,280.206207,148.490021,38.109066
272,0,132.534134,212.403351,85.882393,216.338043,155.650482,101.770844,113.083954,133.606613,85.789520,266.059784,132.903458,76.470177,286.010040,116.662170,49.621254,280.343750,148.805450,38.239193
273,0,132.521164,212.410431,85.857559,216.313812,155.666672,101.769257,113.095497,133.597763,85.813248,266.069214,132.922394,76.470177,286.022400,116.685760,49.635506,280.306885,148.838028,38.217194
274,0,132.527954,212.410324,85.869957,216.320801,155.668793,101.784126,113.097847,133.610550,85.810753,266.049530,132.916641,76.493858,286.030212,116.688553,49.644375,280.140900,148.501419,38.087177
275,0,132.527527,212.409760,85.871346,216.317932,155.661789,101.795944,113.062019,133.572052,85.812645,266.017883,132.929626,76.490639,286.014282,116.679642,49.686962,280.328552,148.839508,38.252777
276,0,132.533020,212.409119,85.862907,216.306000,155.651794,101.780426,113.090698,133.596786,85.811325,266.030029,132.932236,76.490509,286.009369,116.675133,49.640709,280.319550,148.836365,38.250526
277,0,132.520172,212.400711,85.896294,216.285385,155.654861,101.773468,113.055862,133.621475,85.806488,266.020691,132.924728,76.496574,285.936584,116.685349,49.631096,280.298279,148.831451,38.234871
278,0,132.510696,212.404434,85.845070,216.287201,155.652908,101.771706,113.023399,133.597382,85.808403,266.006104,132.922684,76.514420,285.993225,116.676323,49.654808,280.148621,148.521606,38.140766
279,0,132.520325,212.391312,85.879677,216.286484,155.626617,101.766380,113.045776,133.602112,85.807617,266.009583,132.888763,76.496117,285.982513,116.661926,49.654037,280.121490,148.439758,38.093441
280,0,132.525223,212.393845,85.889366,216.282684,155.614120,101.766144,113.002686,133.581772,85.789017,265.995728,132.905106,76.497887,286.005188,116.625557,49.661217,280.151733,148.425400,38.087753
281,0,132.515121,212.398788,85.867653,216.273911,155.641342,101.752106,113.017593,133.588364,85.810036,266.013672,132.919449,76.490486,285.856262,116.591148,49.628613,279.961884,148.363235,38.062824
282,0,132.500031,212.394150,85.849533,216.272446,155.655136,101.783554,113.009857,133.594147,85.789490,266.003265,132.889023,76.514061,285.962402,116.653847,49.678558,280.111237,148.440933,38.086338
283,0,132.527100,212.383606,85.886299,216.291412,155.645813,101.800758,113.018929,133.585815,85.810738,266.000885,132.917282,76.525589,285.982574,116.660652,49.703457,280.100006,148.436554,38.103592
284,0,132.524948,212.393997,85.889084,216.276627,155.648773,101.807152,113.016037,133.590454,85.831886,265.979309,132.908646,76.536201,286.007446,116.629967,49.752136,280.286957,148.750687,38.301216
285,0,132.502823,212.404175,85.864021,216.276764,155.646591,101.808861,113.024895,133.593567,85.809662,266.001923,132.934860,76.536766,285.859833,116.611794,49.720844,280.103058,148.646683,38.232040
286,0,132.488953,212.414368,85.840065,216.261963,155.651428,101.818047,113.011978,133.596893,85.862221,265.972229,132.927353,76.582306,285.768494,116.643806,49.624153,280.096588,148.657303,38.223953
287,0,132.489334,212.414337,85.838959,216.253845,155.673157,101.823044,113.008026,133.595245,85.863396,265.969513,132.927063,76.587074,285.779694,116.656364,49.679836,280.114929,148.665909,38.233971
288,0,132.477753,212.437714,85.869759,216.254776,155.695587,101.855606,113.017586,133.600220,85.870071,265.985657,132.940857,76.591545,285.862640,116.664925,49.737881,280.093323,148.717896,38.272839
289,0,132.487411,212.445251,85.898605,216.264175,155.681671,101.831253,113.010162,133.593277,85.863594,265.993225,132.960037,76.587990,285.857025,116.662331,49.715969,280.095398,148.744675,38.248268
290,0,132.466232,212.435104,85.851448,216.251358,155.670471,101.826492,113.015633,133.610840,85.862267,265.992462,132.962296,76.586594,285.784973,116.695602,49.672367,280.121552,148.762238,38.274437
291,0,132.482849,212.444153,85.878105,216.246735,155.696655,101.845222,113.012619,133.592682,85.867088,265.981873,132.971390,76.570068,285.848358,116.738892,49.679348,280.343781,148.954681,38.337154
292,0,132.472382,212.434982,85.860626,216.228882,155.715851,101.847816,113.004272,133.586655,85.897896,265.982147,132.970703,76.571815,285.847809,116.742973,49.667439,280.348511,148.936905,38.358700
293,0,132.473312,212.434982,85.860435,216.241867,155.696259,101.839386,113.004684,133.598938,85.895035,265.980164,132.968506,76.574814,285.778442,116.683563,49.664822,280.157654,148.805634,38.296013
294,0,132.480835,212.436218,85.852997,216.213974,155.688965,101.823334,113.013885,133.589203,85.873055,265.984375,132.959442,76.570763,285.855988,116.724991,49.669144,280.367523,148.999817,38.368382
295,0,132.494492,212.446671,85.855469,216.221191,155.680740,101.814163,113.015686,133.596024,85.871231,265.981262,132.956772,76.565315,285.863708,116.658997,49.732384,280.222595,148.901779,38.325802
296,0,132.461365,212.432587,85.823586,216.235016,155.671417,101.831879,113.007324,133.588043,85.865234,265.979553,132.943420,76.582230,285.869904,116.723633,49.675312,280.148071,148.507492,38.182762
297,0,132.478500,212.444397,85.845955,216.223724,155.672928,101.831215,113.008591,133.594025,85.863945,265.979126,132.942703,76.582413,285.785339,116.652596,49.675167,280.103912,148.651489,38.245487
298,0,132.481400,212.436295,85.852585,216.230133,155.682098,101.845322,113.015839,133.593445,85.871941,265.976929,132.937088,76.599960,285.780243,116.645409,49.700974,280.094482,148.649384,38.274944
299,0,132.479172,212.444489,85.846107,216.235916,155.676422,101.856117,113.003479,133.610001,85.883873,265.994537,132.937851,76.627129,285.793762,116.649467,49.710030,280.129242,148.657928,38.304276
300,0,132.495453,212.450241,85.871834,216.250549,155.718933,101.874969,113.007454,133.629959,85.879341,265.999878,132.961823,76.656059,285.791931,116.663292,49.720768,280.139893,148.676758,38.304184
301,0,132.473938,212.456985,85.852783,216.257324,155.753189,101.882751,112.982765,133.639816,85.886940,265.975067,132.986893,76.653267,285.805328,116.684921,49.757153,280.147797,148.705551,38.341026
302,0,132.469894,212.453720,85.844994,216.250748,155.757507,101.873528,113.003860,133.617401,85.881714,265.978760,132.992050,76.676430,285.793335,116.699928,49.784153,280.153015,148.756470,38.351051
303,0,132.470779,212.470505,85.841270,216.272675,155.752243,101.894493,112.980659,133.638763,85.884064,265.978943,133.001999,76.677483,285.961517,116.762543,49.819550,280.346832,148.930984,38.446209
304,0,132.470871,212.497269,85.843811,216.242630,155.773270,101.873940,112.966873,133.639465,85.905258,265.990204,133.023865,76.686661,285.888062,116.782768,49.775558,280.363770,148.973465,38.444084
305,0,132.470642,212.497269,85.844193,216.242142,155.775208,101.876816,112.979004,133.638306,85.884468,265.998505,133.041763,76.672180,285.905060,116.808830,49.769260,280.356018,149.025909,38.452530
306,0,132.467224,212.494064,85.836784,216.252197,155.765381,101.893715,112.979691,133.639618,85.883972,265.986572,133.036163,76.680916,285.890625,116.812218,49.766701,280.351654,149.056458,38.443787
307,0,132.476318,212.492477,85.836960,216.258392,155.785538,101.873238,113.002419,133.611877,85.882980,266.003204,133.037384,76.665176,285.839264,116.771973,49.751698,280.211304,148.934189,38.367931
308,0,132.490402,212.477814,85.812195,216.275101,155.774857,101.863380,113.004227,133.611481,85.882767,266.024689,133.042221,76.660080,285.832214,116.750793,49.732620,280.250580,148.990906,38.376839
309,0,132.490280,212.477493,85.832237,216.264694,155.757523,101.852890,113.016945,133.615509,85.877014,265.992828,133.007843,76.636543,285.896912,116.780113,49.743729,280.448975,149.153107,38.453499
310,0,132.492691,212.453400,85.838181,216.276855,155.739212,101.862740,113.010406,133.619949,85.868202,265.996582,133.003860,76.633545,285.881256,116.748032,49.711472,280.416321,149.099915,38.448631
311,0,132.492462,212.453537,85.837791,216.260696,155.731384,101.856972,113.011337,133.618408,85.868477,266.008179,132.956436,76.626144,285.806244,116.674553,49.707478,280.255249,148.924759,38.377148
312,0,132.493591,212.439011,85.816292,216.243179,155.687958,101.809868,113.021576,133.609070,85.870750,265.986084,132.932388,76.616386,285.859650,116.679680,49.703743,280.435181,149.067108,38.439548
313,0,132.476532,212.423386,85.816620,216.244583,155.684677,101.809998,113.006805,133.629761,85.879356,265.981659,132.923889,76.598686,285.792847,116.627708,49.695606,280.244141,148.901947,38.386448
314,0,132.483719,212.435410,85.835571,216.236542,155.669418,101.839714,113.007172,133.589828,85.885719,265.962128,132.889984,76.622589,285.839722,116.658447,49.721336,280.104004,148.418808,38.173290
315,0,132.491165,212.426819,85.853775,216.233658,155.670074,101.843857,113.008202,133.589539,85.885559,265.959839,132.885223,76.631378,285.864014,116.627365,49.738361,280.102386,148.405899,38.171997
316,0,132.499252,212.431717,85.827583,216.229828,155.677856,101.827454,113.002380,133.614380,85.880165,265.968567,132.883041,76.624947,285.755249,116.571396,49.732822,279.991669,148.338776,38.175179
317,0,132.507904,212.451797,85.831154,216.249832,155.682556,101.823181,113.016159,133.587433,85.896584,265.970886,132.898605,76.606667,285.746582,116.580490,49.708988,280.100403,148.564514,38.244289
318,0,132.495071,212.472458,85.841125,216.266403,155.689011,101.829857,113.013786,133.581970,85.897682,265.978729,132.890778,76.602135,285.794830,116.563339,49.690361,280.137299,148.591156,38.243504
319,0,132.525635,212.468323,85.812675,216.264984,155.695221,101.816315,113.015656,133.589233,85.896172,265.983948,132.916626,76.584892,285.861481,116.553658,49.761559,280.109467,148.578613,38.243374
320,0,132.526184,212.468384,85.832298,216.293320,155.714035,101.818642,113.025696,133.602768,85.883217,265.996765,132.923737,76.595207,285.887054,116.576256,49.748455,280.004272,148.341644,38.108505
321,0,132.515427,212.477631,85.831039,216.300797,155.721405,101.795662,113.034210,133.610245,85.881866,266.010010,132.940338,76.533722,285.870697,116.628174,49.703243,280.107849,148.625305,38.184280
322,0,132.525253,212.498505,85.802818,216.303818,155.748428,101.776451,113.083366,133.632736,85.877716,266.027679,132.948883,76.535835,285.970093,116.671181,49.696030,280.322510,148.803711,38.202400
323,0,132.524399,212.488892,85.767181,216.320740,155.745789,101.757271,113.056816,133.635483,85.878555,266.033051,132.962326,76.516861,285.875641,116.647911,49.648018,280.150787,148.688049,38.143375
324,0,132.532684,212.497986,85.749649,216.337677,155.751678,101.760933,113.088211,133.632935,85.880150,266.058472,132.966721,76.510048,285.970795,116.679840,49.645523,280.323822,148.815598,38.181076
325,0,132.533096,212.498352,85.750069,216.348511,155.768967,101.732025,113.087440,133.631683,85.880447,266.058594,132.971024,76.477509,285.999969,116.662552,49.654346,280.303375,148.843231,38.164230
326,0,132.511398,212.490768,85.724236,216.330078,155.766205,101.700897,113.087128,133.634842,85.876343,266.060303,132.969711,76.464287,285.981232,116.715614,49.614033,280.162659,148.506760,38.002407
327,0,132.542587,212.494110,85.712723,216.343826,155.774216,101.702042,113.086876,133.629120,85.881302,266.060974,132.962204,76.450836,285.984436,116.680290,49.616364,280.159424,148.474457,37.992096
328,0,132.544464,212.507965,85.721436,216.338776,155.787720,101.713608,113.094948,133.647507,85.878166,266.033478,132.943634,76.442856,285.949127,116.642029,49.597740,280.138672,148.458939,37.973988
329,0,132.542969,212.507965,85.722046,216.348022,155.763168,101.686943,113.086693,133.628647,85.881363,266.035614,132.913361,76.440628,285.953644,116.618202,49.612244,280.108826,148.425125,37.951073
330,0,132.555557,212.499039,85.729195,216.339340,155.744781,101.687881,113.086235,133.635437,85.876526,266.025330,132.925949,76.424759,285.947815,116.611099,49.568733,280.111603,148.391556,37.930450
331,0,132.566711,212.486603,85.695564,216.340652,155.743469,101.687454,113.092934,133.630936,85.888275,266.039276,132.912903,76.431145,285.851959,116.556190,49.593742,280.080109,148.511108,38.009052
332,0,132.541321,212.504440,85.717934,216.342545,155.753220,101.672081,113.107323,133.676834,85.877968,266.034821,132.921616,76.400436,285.989960,116.569099,49.629730,280.116364,148.350540,37.945045
333,0,132.585815,212.528717,85.723358,216.359711,155.737259,101.673805,113.117798,133.666275,85.900078,266.035309,132.907410,76.392830,285.901978,116.494598,49.616398,280.117584,148.453568,38.004398
334,0,132.679443,212.864288,85.920120,216.373154,155.763718,101.672546,113.118889,133.660446,85.900848,266.069305,132.893570,76.384056,285.901794,116.500534,49.569046,280.149811,148.463974,38.007259
335,0,132.757263,212.863831,85.896240,216.448120,155.724243,101.631393,113.137604,133.677155,85.910530,266.077911,132.875107,76.353416,285.898346,116.500923,49.522877,280.188416,148.414795,37.996395
336,0,132.756302,212.876801,85.895645,216.477097,155.759506,101.616653,113.185570,133.677841,85.912247,266.110657,132.887024,76.354462,286.097382,116.553474,49.571808,280.225555,148.276596,37.893181
337,0,132.764496,212.888306,85.890900,216.476196,155.760941,101.613556,113.203735,133.685287,85.876930,266.146973,132.874466,76.336082,286.124939,116.560524,49.551533,280.244934,148.290054,37.874535
338,0,132.782639,212.896042,85.869370,216.488113,155.774551,101.599266,113.226669,133.653519,85.876839,266.194305,132.903793,76.326988,286.106812,116.561882,49.509636,280.257935,148.291016,37.866550
339,0,132.808670,212.907394,85.853371,216.522186,155.784561,101.573006,113.235939,133.672729,85.872604,266.201324,132.929260,76.295189,286.141083,116.551033,49.490891,280.403870,148.554962,37.982018
340,0,132.823288,212.952698,85.830803,216.536865,155.810028,101.565910,113.239906,133.635345,85.880707,266.195526,132.933121,76.287148,286.126587,116.556305,49.478386,280.259491,148.248169,37.787968
341,0,132.804565,212.973984,85.821701,216.542191,155.817612,101.542831,113.271164,133.635223,85.878815,266.208527,132.944626,76.254517,286.135895,116.576630,49.442333,280.272430,148.301208,37.784637
342,0,132.798019,212.990097,85.848793,216.544037,155.817307,101.537872,113.271675,133.629608,85.883492,266.196655,132.936401,76.250923,286.180756,116.593697,49.460354,280.279724,148.319550,37.793938
343,0,132.812454,212.980637,85.807274,216.519806,155.859390,101.512093,113.281090,133.707672,85.876617,266.179260,132.984711,76.210938,286.178558,116.642113,49.424194,280.280792,148.328781,37.753231
344,0,132.814087,212.993301,85.815300,216.519821,155.849930,101.494484,113.278214,133.718842,85.875343,266.198242,133.022095,76.214249,286.166565,116.659348,49.411774,280.255585,148.341614,37.731064
345,0,132.814590,213.020142,85.827072,216.516357,155.876251,101.509903,113.250206,133.723160,85.885841,266.189423,133.023666,76.202606,286.168945,116.649895,49.426529,280.266693,148.325714,37.751369
346,0,132.791885,213.046173,85.842812,216.516373,155.889740,101.517738,113.239624,133.704254,85.889061,266.183716,133.002228,76.213257,286.099884,116.663658,49.383381,280.234406,148.332230,37.771004
347,0,132.810699,213.049255,85.861214,216.495178,155.868210,101.527435,113.233948,133.732544,85.879280,266.183624,133.004395,76.223335,286.125092,116.671722,49.397621,280.228699,148.332657,37.792591
348,0,132.798553,213.044144,85.841934,216.502045,155.891342,101.547424,113.249870,133.746979,85.888161,266.191406,133.040604,76.249184,286.156372,116.639618,49.459728,280.255157,148.335114,37.799873
349,0,132.779968,213.051575,85.857933,216.517990,155.907288,101.556343,113.225937,133.734894,85.926094,266.189941,133.034042,76.282677,286.056885,116.619080,49.500431,280.186096,148.452118,37.903347
350,0,132.775757,213.050308,85.863480,216.500504,155.903900,101.570534,113.240044,133.741959,85.902084,266.191406,133.016800,76.339584,286.193604,116.674339,49.562149,280.257355,148.333862,37.855442
351,0,132.778671,213.054199,85.843246,216.505875,155.917435,101.588577,113.223366,133.731766,85.926697,266.170471,133.070236,76.335548,286.073608,116.622169,49.563374,280.215759,148.495605,37.941360
352,0,132.819794,213.049377,85.817017,216.528961,155.933014,101.588837,113.230728,133.767548,85.917969,266.199890,133.055328,76.352013,286.154877,116.708862,49.555855,280.407166,148.638229,38.062107
353,0,132.801483,213.080795,85.836601,216.526337,155.934280,101.588676,113.232758,133.769592,85.948563,266.191162,133.108490,76.352997,286.151550,116.736687,49.545818,280.286896,148.401184,37.962193
354,0,132.782425,213.090378,85.864410,216.511078,155.976593,101.584312,113.259918,133.763367,85.948036,266.195923,133.149979,76.337944,286.177887,116.771233,49.560944,280.400604,148.712692,38.066608
355,0,132.778168,213.092194,85.842407,216.522522,155.996063,101.586174,113.232079,133.763367,85.949097,266.218658,133.171036,76.322990,286.160065,116.828445,49.533737,280.275482,148.467682,37.890053
356,0,132.770920,213.091125,85.823776,216.526428,156.002640,101.567642,113.231888,133.766525,85.948517,266.208588,133.210831,76.315323,286.182373,116.895111,49.516968,280.265991,148.468994,37.869854
357,0,132.781815,213.095123,85.841660,216.506363,156.010040,101.582001,113.262787,133.766006,85.947014,266.210114,133.208511,76.316422,286.208069,116.895164,49.528675,280.274261,148.491730,37.906246
358,0,132.774429,213.130371,85.872253,216.532059,156.027969,101.611816,113.235374,133.802582,85.940773,266.222473,133.219849,76.336288,286.206207,116.917831,49.563644,280.271393,148.521545,37.921997
359,0,132.747055,213.127640,85.886162,216.520920,156.031326,101.650848,113.238945,133.785126,85.979523,266.216858,133.258148,76.398033,286.246002,116.941849,49.629013,280.280640,148.597885,37.942196
360,0,132.571793,212.717819,85.593369,216.536942,156.086334,101.716454,113.233627,133.815994,86.018082,266.245056,133.324799,76.462860,286.217285,117.015938,49.668953,280.409210,148.953262,38.141014
361,0,132.536667,212.756531,85.627296,216.543427,156.160507,101.826668,113.199524,133.887451,86.045723,266.265961,133.406265,76.620796,286.276703,117.131165,49.816563,280.359619,148.752441,38.191948
362,0,132.538513,212.797241,85.687637,216.538803,156.253036,101.987892,113.240730,133.947922,86.111938,266.297729,133.499741,76.818443,286.341827,117.229439,50.040264,280.425049,148.877594,38.427372
363,0,132.456955,212.842056,85.721703,216.535294,156.337830,102.129662,113.278893,133.944748,86.176575,266.339844,133.649658,77.073517,286.435547,117.369934,50.321758,280.666412,149.300751,38.885586
364,0,132.443420,212.892334,85.731476,216.520752,156.489395,102.311081,113.287308,134.028595,86.229485,266.358704,133.791443,77.313217,286.475403,117.551140,50.581921,280.772736,149.473572,39.173367
365,0,132.432724,212.930023,85.755722,216.518127,156.626495,102.455559,113.297432,134.115005,86.304047,266.400208,133.956238,77.555069,286.558685,117.703323,50.847672,280.846924,149.604309,39.434101
366,0,132.371140,212.985703,85.765961,216.525269,156.747620,102.581383,113.286888,134.160767,86.360100,266.447845,134.138138,77.745583,286.627899,117.879425,51.034203,280.873535,149.746750,39.646294
367,0,132.357773,213.008347,85.786743,216.524124,156.858276,102.698395,113.283928,134.189011,86.405708,266.456970,134.273849,77.888680,286.679108,118.057869,51.220558,280.899963,149.830811,39.757847
368,0,132.345978,213.047318,85.776695,216.518692,156.961075,102.733307,113.316254,134.260651,86.425545,266.450531,134.376953,77.938354,286.735291,118.174934,51.289009,280.940247,149.858124,39.834110
369,0,132.344025,213.083389,85.748863,216.518433,156.990524,102.724289,113.291977,134.267715,86.448982,266.488068,134.460770,77.935005,286.756866,118.216530,51.285500,280.929108,149.819962,39.829952
370,0,132.342178,213.097656,85.735535,216.526215,157.018677,102.673103,113.298378,134.294693,86.439735,266.466064,134.459488,77.862411,286.692688,118.228424,51.196121,280.878540,149.790588,39.740665
371,0,132.334961,213.103180,85.705803,216.502823,157.015091,102.604683,113.300110,134.264847,86.412949,266.461487,134.445602,77.781517,286.686096,118.247025,51.076786,280.662140,149.460037,39.521507
372,0,132.350479,213.075272,85.722862,216.512177,156.977798,102.525482,113.279411,134.238770,86.375954,266.439453,134.427979,77.636742,286.608398,118.234802,50.936531,280.641388,149.409775,39.374260
373,0,132.366852,213.053131,85.693626,216.480453,156.907272,102.447098,113.257973,134.207336,86.312683,266.375549,134.362656,77.493591,286.587524,118.182083,50.789181,280.565887,149.387848,39.200062
374,0,132.340256,213.029343,85.696724,216.475403,156.847595,102.339432,113.227684,134.175430,86.239609,266.330597,134.281219,77.359756,286.516632,118.103371,50.610584,280.493073,149.321991,39.021038
375,0,132.340424,212.996384,85.689720,216.454636,156.779510,102.255432,113.224632,134.117401,86.229843,266.310272,134.181503,77.230186,286.464386,118.028725,50.462166,280.406921,149.248108,38.876507
376,0,132.404053,212.963745,85.677368,216.427795,156.729172,102.204689,113.206619,134.106079,86.201492,266.280182,134.121490,77.144814,286.385406,117.944359,50.346882,280.504425,149.394196,38.894855
377,0,132.370148,212.927536,85.678482,216.414688,156.674438,102.150330,113.173370,134.068771,86.200600,266.261139,134.067368,77.073845,286.322144,117.870445,50.276150,280.432861,149.307037,38.771248
378,0,132.368713,212.927628,85.678215,216.404556,156.652405,102.133804,113.176888,134.079025,86.157272,266.225250,134.011368,77.044472,286.302460,117.845535,50.248608,280.267853,148.973709,38.582405
379,0,132.365173,212.906830,85.686241,216.398621,156.609467,102.156723,113.161499,134.068848,86.181442,266.208374,133.989288,77.061562,286.304321,117.789978,50.277931,280.253723,148.940384,38.564999
380,0,132.365295,212.906830,85.666588,216.371948,156.617462,102.169258,113.131462,134.077362,86.181061,266.207794,133.991699,77.115692,286.288361,117.794464,50.296177,280.270233,148.915039,38.600594
381,0,132.395798,212.909805,85.675156,216.410522,156.605240,102.198647,113.178299,134.052612,86.155266,266.236267,134.005554,77.145409,286.327026,117.758148,50.340527,280.425964,149.165543,38.802158
382,0,132.403687,212.885712,85.672546,216.431992,156.621918,102.220833,113.176605,134.054626,86.154945,266.279236,134.001740,77.176254,286.333069,117.777161,50.389378,280.484253,149.177277,38.883816
383,0,132.439301,212.888474,85.662910,216.447159,156.615158,102.228996,113.178314,134.060730,86.153679,266.285980,134.009338,77.210556,286.365814,117.784737,50.411598,280.547424,149.208389,38.963966
384,0,132.440247,212.909241,85.667473,216.451035,156.639664,102.241356,113.189537,134.058807,86.153557,266.290466,134.019928,77.217186,286.378693,117.774330,50.432865,280.592316,149.262329,39.002789
385,0,132.464874,212.917755,85.661888,216.458054,156.635727,102.223747,113.233810,134.044525,86.169189,266.318604,134.039719,77.199867,286.403961,117.806618,50.409195,280.590851,149.302078,38.992393
386,0,132.457962,212.913452,85.636887,216.479553,156.652435,102.188629,113.236443,134.045471,86.145546,266.316040,134.048248,77.155182,286.431976,117.834000,50.378429,280.622101,149.342407,38.949570
387,0,132.484177,212.940842,85.625046,216.498764,156.678757,102.161232,113.216637,134.072739,86.116959,266.350891,134.035660,77.112061,286.428223,117.818733,50.295101,280.634949,149.344025,38.925636
388,0,132.486908,212.958969,85.617088,216.481125,156.654739,102.117943,113.217003,134.075394,86.095802,266.341919,134.039139,77.049820,286.414429,117.831505,50.261349,280.644104,149.378677,38.909832
389,0,132.491440,212.946548,85.571579,216.494705,156.664810,102.067604,113.220062,134.042938,86.103249,266.340698,134.046387,77.016037,286.396423,117.811424,50.178757,280.451263,149.100189,38.683289
390,0,132.512039,212.938568,85.535576,216.512268,156.656952,102.028427,113.243210,134.069016,86.079628,266.329773,134.032150,76.933998,286.383423,117.807602,50.128876,280.463989,149.119125,38.642128
391,0,132.511948,212.934280,85.538017,216.516998,156.635757,101.995255,113.249115,134.050964,86.076767,266.341675,134.005768,76.920212,286.379547,117.761261,50.083347,280.464111,149.109177,38.588581
392,0,132.531815,212.932266,85.528877,216.503159,156.638901,101.973595,113.233620,134.062515,86.054390,266.354858,133.961105,76.900269,286.376862,117.737984,50.095432,280.467224,149.070923,38.564365
393,0,132.514557,212.914032,85.515076,216.509171,156.606567,101.987289,113.286552,134.077438,86.054550,266.341827,133.932007,76.875809,286.337677,117.712013,50.062199,280.458008,149.060120,38.550480
394,0,132.538376,212.914154,85.535118,216.522263,156.592316,101.969452,113.259369,134.071091,86.057465,266.342987,133.892014,76.883072,286.346039,117.665657,50.074688,280.455231,149.011383,38.544518
395,0,132.542328,212.920975,85.539528,216.511612,156.585190,101.949020,113.288506,134.073593,86.054970,266.351685,133.901505,76.866035,286.365326,117.598915,50.070087,280.458282,148.961182,38.524017
396,0,132.556030,212.936783,85.528244,216.518631,156.566132,101.968002,113.288521,134.065353,86.057175,266.358032,133.878082,76.862785,286.346710,117.587090,50.050587,280.453644,148.927841,38.509720
397,0,132.634964,213.268082,85.737320,216.508194,156.566452,101.933640,113.289116,134.065094,86.060272,266.324707,133.852753,76.883049,286.355927,117.540398,50.065868,280.451233,148.902496,38.476555
398,0,132.539322,212.923706,85.486160,216.509491,156.560577,101.943123,113.286415,134.075897,86.055115,266.341034,133.848450,76.857086,286.341309,117.533203,50.056126,280.450409,148.892975,38.476421
399,0,132.563980,212.924225,85.486176,216.510635,156.582535,101.925568,113.286476,134.074844,86.055046,266.344269,133.842133,76.881386,286.345734,117.532845,50.053261,280.443817,148.896851,38.465286
400,0,132.555511,212.926376,85.474602,216.512100,156.568619,101.919899,113.285927,134.070374,86.056557,266.351807,133.868698,76.850731,286.361389,117.532806,50.064884,280.454132,148.899139,38.457977
401,0,132.551163,212.961121,85.489815,216.507080,156.601761,101.909569,113.286621,134.071030,86.055595,266.314514,133.863251,76.832504,286.321289,117.561287,50.035965,280.454895,148.928955,38.479443
402,0,132.539886,212.958298,85.471825,216.507095,156.574081,101.904259,113.286469,134.075012,86.054527,266.286224,133.847565,76.817673,286.328033,117.565109,50.038891,280.455658,148.929504,38.477978
403,0,132.649597,213.291519,85.713417,216.512527,156.585175,101.897362,113.262497,134.050583,86.054428,266.318329,133.838852,76.806664,286.311615,117.567558,50.010456,280.434845,148.932281,38.425980
404,0,132.579269,212.960587,85.479744,216.494980,156.593170,101.864700,113.236900,134.047119,86.034134,266.318024,133.855133,76.789070,286.325134,117.561913,49.968552,280.417877,148.956985,38.397907
405,0,132.537109,212.941895,85.470528,216.512054,156.597946,101.850143,113.224678,134.021164,86.040329,266.299896,133.857269,76.763298,286.309601,117.554710,49.948112,280.410828,148.942307,38.389782
406,0,132.627884,213.299545,85.729042,216.499161,156.606628,101.839165,113.208298,134.066574,86.009613,266.295044,133.855316,76.758293,286.298096,117.530617,49.974335,280.358337,148.943405,38.341904
407,0,132.625443,213.263260,85.705399,216.492783,156.581116,101.839233,113.217339,134.038544,86.024567,266.268158,133.829208,76.750099,286.255402,117.497345,49.963100,280.516479,149.181870,38.447933
408,0,132.532669,212.917206,85.441154,216.478821,156.566833,101.830872,113.207413,134.039581,86.005692,266.272003,133.834244,76.720490,286.255615,117.510658,49.935150,280.375214,148.877151,38.304760
409,0,132.533524,212.921051,85.476936,216.472687,156.537430,101.804802,113.211327,134.037781,85.993530,266.251862,133.754471,76.719421,286.242432,117.432167,49.946426,280.468475,149.130920,38.404835
410,0,132.618195,213.264801,85.715691,216.459656,156.515564,101.815041,113.201996,134.036346,85.998161,266.230652,133.754517,76.705086,286.274719,117.421249,49.953251,280.337524,148.824371,38.307411
411,0,132.643875,213.272903,85.703346,216.461990,156.494446,101.838013,113.202820,134.036957,85.997787,266.251190,133.699524,76.729889,286.254608,117.392258,49.952915,280.351013,148.790176,38.313110
412,0,132.625946,213.265167,85.709892,216.470444,156.509720,101.835304,113.200607,134.043991,85.993225,266.263214,133.710800,76.715164,286.256104,117.368614,49.991993,280.475616,149.062592,38.426472
413,0,132.637680,213.255432,85.730354,216.477112,156.506180,101.850044,113.214928,134.019882,85.989578,266.296143,133.680557,76.749542,286.298920,117.376450,50.008396,280.376068,148.780014,38.330219
414,0,132.659729,213.257446,85.736694,216.465897,156.472580,101.864166,113.214966,134.027008,86.022903,266.276581,133.702667,76.758522,286.309509,117.356827,49.995049,280.356812,148.754227,38.321163
415,0,132.658249,213.277298,85.754517,216.486740,156.442291,101.870667,113.213570,134.041138,85.992813,266.271515,133.673737,76.785896,286.291107,117.361137,50.009941,280.369110,148.748459,38.341644
416,0,132.551987,212.913971,85.509460,216.478653,156.463181,101.902641,113.211723,134.042496,86.015137,266.276978,133.687469,76.805237,286.313904,117.349106,50.032135,280.365875,148.748550,38.347721
417,0,132.646164,213.238953,85.719757,216.474136,156.460754,101.903313,113.225182,134.027130,86.018791,266.274231,133.671631,76.825714,286.303619,117.338814,50.042816,280.384979,148.735443,38.362289
418,0,132.550919,212.926666,85.502762,216.497879,156.457596,101.893181,113.211853,134.037292,86.008728,266.267029,133.671860,76.819252,286.318634,117.342468,50.050682,280.386627,148.742203,38.356846
419,0,132.676834,213.251495,85.723442,216.498520,156.469528,101.893509,113.214203,134.035370,86.017509,266.285950,133.691284,76.785606,286.331055,117.327850,50.059547,280.359131,148.755173,38.344341
420,0,132.623795,213.253342,85.684418,216.507294,156.494766,101.898682,113.222221,134.015396,86.053802,266.305115,133.685883,76.789055,286.310760,117.349625,50.035717,280.397675,148.749619,38.350578
421,0,132.573761,212.922836,85.487450,216.515808,156.499512,101.893784,113.227509,134.005051,86.063667,266.300537,133.692383,76.787125,286.354523,117.333954,50.054165,280.419922,148.714920,38.343529
422,0,132.545227,212.923187,85.476944,216.539459,156.494049,101.886665,113.230255,134.004456,86.067024,266.341095,133.696320,76.784782,286.374939,117.323029,50.068211,280.424133,148.713181,38.333881
423,0,132.545410,212.923370,85.476433,216.553696,156.486618,101.895103,113.272827,134.023285,86.064621,266.350128,133.677139,76.790680,286.367767,117.319122,50.032524,280.423431,148.716278,38.313599
424,0,132.599457,212.921661,85.477364,216.579025,156.491394,101.869835,113.282158,133.998505,86.078659,266.349426,133.685715,76.777817,286.356598,117.333900,50.007099,280.451385,148.675522,38.324776
425,0,132.579849,212.937073,85.479141,216.589218,156.495056,101.884445,113.306000,134.017151,86.079475,266.380157,133.663315,76.789154,286.405396,117.320541,50.041630,280.488495,148.685928,38.335926
426,0,132.633408,212.934769,85.482384,216.603378,156.491989,101.894485,113.309624,134.019531,86.085991,266.395416,133.662781,76.804459,286.423065,117.316216,50.053757,280.476532,148.697021,38.334732
427,0,132.665024,212.948425,85.469803,216.642090,156.509216,101.897842,113.339859,134.032974,86.079193,266.432434,133.671066,76.807785,286.473419,117.307602,50.062008,280.549805,148.691681,38.358639
428,0,132.656570,212.951508,85.429504,216.669022,156.499893,101.907089,113.369835,134.029144,86.078506,266.458527,133.691467,76.824791,286.518219,117.318192,50.070168,280.569702,148.709167,38.375912
429,0,132.645126,212.961121,85.428940,216.690674,156.540070,101.904427,113.399940,134.030350,86.083336,266.505157,133.683640,76.839561,286.555817,117.336182,50.081139,280.576569,148.729080,38.381451
430,0,132.672623,212.950027,85.438576,216.713425,156.526398,101.938782,113.428848,134.058792,86.105034,266.501099,133.705917,76.865356,286.523376,117.363869,50.053249,280.609619,148.750381,38.400375
431,0,132.664703,212.975266,85.440445,216.739166,156.558777,101.920784,113.429184,134.063171,86.103584,266.510864,133.697510,76.863144,286.578369,117.362488,50.076996,280.652405,148.751251,38.408485
432,0,132.676315,212.965454,85.441025,216.739304,156.554153,101.914452,113.432472,134.061264,86.107185,266.532562,133.729858,76.843018,286.609558,117.375633,50.095314,280.670380,148.759811,38.405022
433,0,132.672943,212.987579,85.459610,216.740387,156.578491,101.920181,113.430801,134.061249,86.107185,266.549164,133.747864,76.849380,286.603271,117.391464,50.072750,280.651276,148.785233,38.379147
434,0,132.668137,212.987549,85.460945,216.742004,156.579498,101.914764,113.454140,134.087189,86.080444,266.541718,133.783295,76.809509,286.601105,117.424065,50.066444,280.648285,148.792740,38.353199
435,0,132.657227,213.015076,85.440872,216.735016,156.614349,101.907028,113.431541,134.065308,86.106361,266.542297,133.793289,76.803085,286.594879,117.442589,50.040848,280.625671,148.825378,38.332794
436,0,132.640381,213.002655,85.439178,216.718613,156.636719,101.886826,113.426147,134.086136,86.101509,266.532104,133.798859,76.801765,286.540039,117.485840,49.981991,280.606842,148.854446,38.321186
437,0,132.647339,213.018585,85.441910,216.710663,156.649109,101.874352,113.433640,134.109741,86.096611,266.534485,133.839783,76.798386,286.609253,117.479317,50.046364,280.605316,148.866638,38.305363
438,0,132.646530,213.018875,85.440071,216.715256,156.644547,101.898415,113.411362,134.137695,86.097336,266.519745,133.858688,76.806633,286.597107,117.491142,50.036663,280.601715,148.889236,38.330791
439,0,132.644501,213.036682,85.444466,216.708481,156.648834,101.890251,113.435760,134.114731,86.095001,266.516541,133.859421,76.825661,286.561707,117.524910,50.034004,280.604828,148.926743,38.338799
440,0,132.627441,213.047012,85.434074,216.696518,156.685410,101.924980,113.435890,134.103470,86.125336,266.526611,133.919830,76.838051,286.588074,117.584976,50.055653,280.594421,148.951340,38.354004
441,0,132.662323,213.040741,85.471664,216.702652,156.671036,101.951057,113.415131,134.139587,86.105026,266.534729,133.922791,76.847061,286.591431,117.586105,50.091663,280.606598,148.973755,38.395046
442,0,132.602600,213.059860,85.446762,216.695541,156.715851,101.942764,113.416168,134.138702,86.105118,266.516571,133.942932,76.859505,286.507172,117.625710,50.059685,280.766815,149.267029,38.557014
443,0,132.604797,213.059799,85.447380,216.693634,156.689911,101.947945,113.410179,134.146393,86.118004,266.507477,133.936661,76.862625,286.566528,117.617920,50.101067,280.599426,149.027206,38.421463
444,0,132.605423,213.059937,85.446373,216.667725,156.691666,101.937508,113.399521,134.121689,86.123131,266.502319,133.941971,76.859375,286.520599,117.643250,50.042831,280.569550,149.030548,38.405930
445,0,132.609863,213.062988,85.455688,216.679184,156.674362,101.930565,113.395233,134.110565,86.100243,266.478088,133.933517,76.861931,286.492493,117.626465,50.044464,280.566223,149.023178,38.391941
446,0,132.569397,213.021637,85.457054,216.626663,156.672653,101.926422,113.386719,134.138824,86.086380,266.444366,133.920166,76.818703,286.499603,117.596382,50.023338,280.512177,149.028564,38.363949
447,0,132.567032,213.005569,85.455872,216.614044,156.653122,101.895134,113.319458,134.125046,86.062912,266.407867,133.917923,76.778778,286.471680,117.607063,49.991623,280.492981,149.009109,38.325928
448,0,132.566803,213.009155,85.453217,216.586136,156.654892,101.863968,113.313118,134.069626,86.075150,266.392487,133.907471,76.751076,286.476501,117.579285,49.979942,280.598785,149.254105,38.438824
449,0,132.566681,213.012939,85.470474,216.552322,156.627396,101.856071,113.310768,134.070663,86.067238,266.377838,133.873627,76.721512,286.406219,117.578194,49.958523,280.547668,149.253632,38.416157
450,0,132.542938,212.966736,85.494469,216.566284,156.592865,101.841530,113.292633,134.054367,86.059410,266.355988,133.868622,76.697327,286.363312,117.553886,49.923756,280.534515,149.233780,38.388409
451,0,132.523468,212.970123,85.481087,216.533875,156.579361,101.834457,113.273643,134.027679,86.048531,266.331146,133.844635,76.676025,286.398041,117.522530,49.918957,280.387329,148.943832,38.239285
452,0,132.529083,212.930450,85.503296,216.519318,156.537659,101.806129,113.265533,134.004501,86.026955,266.327942,133.804993,76.676758,286.364838,117.527199,49.883755,280.378754,148.907654,38.234154
453,0,132.606995,213.266052,85.760765,216.507431,156.497147,101.812561,113.220329,134.021332,85.996765,266.283203,133.745636,76.672302,286.306000,117.496727,49.860794,280.362427,148.893585,38.229053
454,0,132.524475,212.909180,85.543762,216.495804,156.457153,101.828659,113.218292,133.971252,86.008606,266.283386,133.720062,76.672318,286.295044,117.430710,49.858570,280.357025,148.863251,38.230103
455,0,132.587784,213.207474,85.765099,216.498566,156.462830,101.822998,113.205795,133.998871,85.994301,266.274323,133.697067,76.666817,286.250916,117.411812,49.858479,280.443390,149.090836,38.345783
456,0,132.491837,212.875854,85.528152,216.467773,156.413605,101.827980,113.207214,134.007401,85.992683,266.261475,133.678085,76.689209,286.266907,117.396919,49.894028,280.427094,149.086273,38.353138
457,0,132.478592,212.851837,85.578766,216.474487,156.401077,101.848213,113.184631,133.981628,85.993042,266.239502,133.669525,76.697044,286.255890,117.400459,49.889046,280.312012,148.769745,38.249016
458,0,132.586548,213.192200,85.814415,216.461349,156.401993,101.854485,113.170593,133.953690,85.996178,266.236969,133.657928,76.693008,286.240570,117.380417,49.885490,280.306427,148.763229,38.273331
459,0,132.462555,212.858200,85.570465,216.411636,156.410355,101.840126,113.165009,133.958771,85.986931,266.201294,133.663086,76.686317,286.242004,117.385895,49.896366,280.283417,148.777161,38.253361
460,0,132.479050,212.852066,85.577728,216.399933,156.397614,101.856262,113.163261,133.959167,85.987099,266.204651,133.653671,76.707565,286.258881,117.382706,49.927395,280.273651,148.778412,38.253757
461,0,132.499054,212.868744,85.604782,216.412537,156.427643,101.874435,113.134247,133.958466,85.988892,266.177673,133.669327,76.712517,286.205933,117.422272,49.915558,280.288635,148.793488,38.275467
462,0,132.475281,212.850372,85.600929,216.392624,156.411728,101.870285,113.131088,133.963058,85.979691,266.158600,133.687698,76.696426,286.185913,117.386238,49.903984,280.283234,148.814987,38.271427
463,0,132.536316,213.179733,85.828644,216.380569,156.393829,101.858368,113.130424,133.971664,85.974831,266.138367,133.675140,76.680107,286.166809,117.400734,49.876656,280.236267,148.828125,38.266266
464,0,132.466309,212.814743,85.602402,216.368103,156.388229,101.841614,113.093407,133.918686,85.981712,266.150116,133.652954,76.681313,286.106659,117.412041,49.805309,280.229370,148.817673,38.262047
465,0,132.443268,212.824097,85.597656,216.345367,156.386749,101.858925,113.090584,133.919022,85.973366,266.139099,133.646194,76.680168,286.073669,117.401085,49.800747,280.225647,148.806061,38.249405
466,0,132.455170,212.817963,85.619797,216.321548,156.350067,101.865524,113.090248,133.936661,85.966125,266.104767,133.626816,76.670845,286.027405,117.391869,49.794228,280.310486,149.080856,38.365150
467,0,132.379333,212.815536,85.613113,216.302429,156.358368,101.858452,113.084900,133.931717,85.979614,266.091309,133.618149,76.679260,286.026215,117.348709,49.820526,280.191315,148.757721,38.251301
468,0,132.430557,212.793930,85.623337,216.296951,156.339050,101.836746,113.028557,133.925217,85.954102,266.055542,133.573914,76.689926,285.984039,117.338509,49.813477,280.277161,148.991348,38.366966
469,0,132.409088,212.827057,85.614304,216.281403,156.303558,101.861870,113.045120,133.899353,85.990898,266.052521,133.570389,76.692329,285.970490,117.314384,49.824982,280.266541,148.978775,38.377857
470,0,132.457443,213.136688,85.861526,216.272415,156.308578,101.878159,113.044662,133.910904,85.985504,266.040161,133.552597,76.717262,285.977020,117.255081,49.867599,280.260986,148.939240,38.410618
471,0,132.386215,212.796585,85.611946,216.267960,156.323914,101.877716,113.028160,133.946167,85.957397,266.014984,133.550232,76.699463,286.017792,117.256317,49.907364,280.228699,148.945984,38.415096
472,0,132.397903,212.798904,85.611259,216.274460,156.310181,101.887642,113.010193,133.941238,85.971153,266.008728,133.547058,76.706223,285.857666,117.196938,49.881287,280.098358,148.820023,38.390854
473,0,132.396942,212.798981,85.611237,216.250198,156.321960,101.888138,112.986778,133.956604,85.979042,266.021576,133.539291,76.741692,285.945923,117.258003,49.887249,280.300812,148.990494,38.475433
474,0,132.389450,212.812302,85.614120,216.282318,156.310730,101.897957,112.998466,133.961044,85.993805,266.010040,133.548416,76.704849,285.946075,117.260780,49.882835,280.297638,149.027176,38.496277
475,0,132.386826,212.796814,85.611534,216.267624,156.319901,101.877930,113.011803,133.963852,85.972290,266.019623,133.567017,76.710899,285.933136,117.265396,49.864105,280.324341,149.071457,38.507858
476,0,132.389725,212.806625,85.603424,216.275360,156.313812,101.878174,113.002693,133.965485,85.960815,266.028534,133.571228,76.681824,285.940155,117.289330,49.852245,280.323822,149.115280,38.495735
477,0,132.509949,213.161392,85.870720,216.277405,156.314545,101.859886,113.027870,133.939774,85.959152,266.023193,133.575089,76.680649,285.933502,117.300331,49.835907,280.344055,149.160095,38.501419
478,0,132.396393,212.824661,85.614784,216.282944,156.301178,101.856552,113.023262,133.937210,85.951057,266.028625,133.562653,76.681351,285.949341,117.298851,49.827763,280.275238,149.031525,38.408543
479,0,132.518646,213.166214,85.840324,216.287964,156.296249,101.840851,113.027405,133.938751,85.958755,266.060028,133.546326,76.656776,285.941132,117.240540,49.793404,280.376587,149.139648,38.466240
480,0,132.520905,213.170303,85.839218,216.311234,156.305038,101.810333,113.027000,133.927765,85.964806,266.071777,133.532867,76.638748,285.960907,117.249229,49.778515,280.154144,148.657608,38.224606
481,0,132.536301,213.154358,85.818939,216.299728,156.318466,101.788193,113.051353,133.940399,85.990807,266.095734,133.531921,76.612335,285.957764,117.215210,49.762871,280.265686,148.903229,38.314877
482,0,132.534210,213.162766,85.813400,216.361511,156.315186,101.796051,113.081726,133.941895,85.988518,266.095917,133.520676,76.610222,286.038757,117.199417,49.795246,280.145782,148.628326,38.158798
483,0,132.542084,213.166687,85.806458,216.388504,156.317123,101.775032,113.088875,133.917404,85.993500,266.111664,133.523071,76.584541,285.891022,117.163162,49.739540,280.093170,148.740448,38.193295
484,0,132.569275,213.205154,85.811867,216.393265,156.326630,101.764732,113.082764,133.934280,85.989655,266.117401,133.523697,76.569054,285.983551,117.182884,49.707088,280.167511,148.576981,38.122704
485,0,132.568039,213.226425,85.776672,216.410172,156.340988,101.745697,113.094193,133.955246,85.988327,266.127838,133.540756,76.565804,286.053589,117.161354,49.758018,280.163116,148.590591,38.106766
486,0,132.571411,213.238388,85.786354,216.414337,156.345032,101.735252,113.124260,133.953125,85.994598,266.120300,133.544510,76.550423,285.997955,117.211601,49.697861,280.180450,148.592758,38.065407
487,0,132.610275,213.235977,85.790329,216.432312,156.355789,101.729324,113.129730,133.950867,86.002716,266.174103,133.560623,76.542809,286.143219,117.172997,49.754501,280.298065,148.886719,38.196518
488,0,132.598511,213.252090,85.769737,216.443695,156.371185,101.727959,113.128906,133.952072,86.002304,266.193695,133.550003,76.526230,286.115173,117.210541,49.717865,280.177948,148.639786,38.030060
489,0,132.522171,212.872604,85.520058,216.464157,156.369919,101.716789,113.128746,133.954071,86.002151,266.213989,133.564331,76.519142,286.143097,117.212601,49.690918,280.194580,148.665512,38.030876
490,0,132.612366,213.215485,85.770317,216.460251,156.381027,101.675186,113.158234,133.970993,85.987389,266.207794,133.573227,76.483833,286.125519,117.198097,49.658413,280.234589,148.661621,38.017044
491,0,132.624512,213.199524,85.734344,216.479095,156.370499,101.654808,113.174522,133.952972,85.967491,266.211823,133.569839,76.450813,286.128326,117.194160,49.642040,280.227448,148.638412,37.985752
492,0,132.614273,213.211472,85.734818,216.493790,156.358368,101.653030,113.185791,133.971725,85.967064,266.200287,133.530258,76.410805,286.152618,117.189285,49.620335,280.230042,148.624100,37.966877
493,0,132.664810,213.198715,85.726913,216.505020,156.331177,101.617332,113.189827,133.985306,85.959152,266.211060,133.503906,76.403992,286.161591,117.137772,49.599968,280.233246,148.614426,37.950672
494,0,132.657516,213.222321,85.730263,216.503555,156.333313,101.609215,113.209274,134.002350,85.961372,266.211334,133.499588,76.379822,286.193359,117.106277,49.605335,280.257812,148.577682,37.919956
495,0,132.676804,213.224335,85.717583,216.543381,156.362305,101.574760,113.210152,134.000610,85.961517,266.246399,133.490326,76.320503,286.172760,117.116264,49.542442,280.243988,148.580795,37.866180
496,0,132.683182,213.219696,85.702110,216.545670,156.366287,101.526299,113.201576,133.996826,85.991890,266.253632,133.491272,76.285812,286.186066,117.088287,49.484882,280.256317,148.576447,37.816631
497,0,132.692612,213.239059,85.684151,216.551270,156.356400,101.510139,113.208862,133.969315,86.001366,266.260681,133.496445,76.254715,286.159637,117.113655,49.467453,280.350952,148.846283,37.931656
498,0,132.714874,213.250626,85.714981,216.586029,156.332077,101.496010,113.248932,133.911942,86.019531,266.270721,133.498688,76.235565,286.200684,117.115494,49.421650,280.252319,148.572601,37.779976
499,0,132.725632,213.263519,85.724960,216.594711,156.336411,101.476631,113.282700,133.954437,86.015678,266.285370,133.498215,76.165993,286.228668,117.109253,49.386543,280.255402,148.594467,37.764606
500,0,132.735291,213.270386,85.684090,216.604904,156.352066,101.444023,113.264229,133.941544,85.998398,266.284943,133.507874,76.127518,286.217865,117.113297,49.328640,280.419128,148.859177,37.837063
501,0,132.738815,213.284149,85.691559,216.602341,156.337601,101.403954,113.294128,133.956039,86.006248,266.275665,133.493881,76.064827,286.228882,117.084015,49.267967,280.395386,148.848282,37.806370
502,0,132.762207,213.305038,85.695770,216.632034,156.350113,101.335342,113.297302,133.951584,86.015289,266.301331,133.489349,75.973694,286.190033,117.068626,49.195396,280.404388,148.846603,37.765850
503,0,132.780106,213.324661,85.674736,216.652771,156.345123,101.292839,113.301414,133.964005,85.971291,266.306305,133.482605,75.913048,286.142670,117.074524,49.084770,280.411957,148.846298,37.691082
504,0,132.782410,213.309052,85.627121,216.658234,156.333969,101.227203,113.303032,133.963089,85.979523,266.295197,133.479248,75.837067,286.123230,117.073555,48.968361,280.425842,148.862427,37.639004
505,0,132.779114,213.309113,85.620300,216.666870,156.351379,101.193863,113.308693,133.936798,85.985573,266.309967,133.500061,75.772514,286.108826,117.085663,48.912296,280.429352,148.890121,37.644245
506,0,132.788467,213.311966,85.627960,216.678497,156.366058,101.162666,113.311035,133.937668,85.985825,266.292389,133.516815,75.705246,286.078064,117.084358,48.841293,280.401733,148.888519,37.591991
507,0,132.785416,213.301041,85.622032,216.693344,156.367477,101.087631,113.299179,133.948624,85.963112,266.291962,133.531265,75.664513,286.065369,117.126678,48.776108,280.408569,148.916092,37.563103
508,0,132.791489,213.307938,85.617340,216.668121,156.387589,101.074211,113.299217,133.949188,85.962929,266.295959,133.514160,75.623489,286.032959,117.116371,48.726715,280.442230,148.931229,37.571163
509,0,132.791809,213.315079,85.607887,216.667206,156.401016,101.062019,113.294426,133.964066,85.962761,266.289734,133.550308,75.615715,286.041382,117.113487,48.723351,280.395905,148.945190,37.556290
510,0,132.797668,213.321396,85.616898,216.661758,156.400452,101.042618,113.306824,133.959793,85.983215,266.258789,133.537643,75.585365,286.041077,117.131378,48.707680,280.391479,148.947037,37.556416
511,0,132.785446,213.329239,85.616440,216.662552,156.394623,101.026596,113.303322,133.959137,85.980576,266.256165,133.540634,75.558609,286.038849,117.135597,48.691498,280.383606,148.968414,37.537170
512,0,132.815338,213.350433,85.568108,216.654892,156.433197,100.988525,113.265274,133.964737,85.969643,266.253082,133.563965,75.521080,285.980774,117.145592,48.657917,280.394287,148.982361,37.536617
513,0,132.781143,213.344788,85.563499,216.656403,156.437241,100.966461,113.302399,133.959229,85.980469,266.246887,133.565582,75.513077,286.007935,117.143677,48.645611,280.398651,148.999649,37.517090
514,0,132.770737,213.348221,85.558517,216.638336,156.442413,100.952240,113.300240,133.953522,85.982002,266.236511,133.576065,75.491928,286.002380,117.145889,48.628208,280.385040,149.023193,37.511200
515,0,132.655121,212.898407,85.246368,216.673615,156.448898,100.937798,113.297066,133.954346,85.993393,266.248138,133.589798,75.468773,286.027863,117.160965,48.607681,280.392975,149.027054,37.508373
516,0,132.686829,212.907059,85.264465,216.681671,156.431747,100.911407,113.297203,133.951675,85.994385,266.264038,133.596191,75.431969,286.035980,117.168121,48.582199,280.418518,149.042328,37.472321
517,0,132.671753,212.898483,85.242569,216.716507,156.459503,100.862114,113.313797,133.928345,85.999008,266.293243,133.605026,75.390930,286.035797,117.209633,48.534950,280.416962,149.064362,37.432732
518,0,132.690857,212.886139,85.257774,216.692703,156.451035,100.842323,113.303719,133.948914,86.005806,266.285950,133.601807,75.384781,286.046509,117.194252,48.515408,280.430939,149.060898,37.423985
519,0,132.685745,212.916519,85.238503,216.706879,156.455048,100.788727,113.309418,133.925003,86.011421,266.289825,133.629196,75.339790,286.058838,117.208969,48.497986,280.430023,149.074951,37.403603
520,0,132.688690,212.897797,85.235474,216.705231,156.474915,100.758965,113.310257,133.924393,86.011726,266.301697,133.623337,75.367813,286.124786,117.193977,48.546593,280.426636,149.082794,37.347694
521,0,132.691208,212.911896,85.229355,216.686371,156.474991,100.728607,113.302170,133.947723,86.006668,266.312531,133.632202,75.361481,286.139191,117.207886,48.545834,280.427277,149.108719,37.341129
522,0,132.693939,212.921646,85.221199,216.712341,156.498260,100.687241,113.307106,133.953842,86.008232,266.306305,133.668839,75.344292,286.139130,117.240707,48.529083,280.416809,149.099579,37.344810
523,0,132.692780,212.918350,85.187630,216.715775,156.513901,100.659904,113.306168,133.953506,86.004684,266.306488,133.707596,75.292961,286.139099,117.266930,48.514141,280.424133,149.137985,37.344666
524,0,132.687546,212.915237,85.196915,216.707092,156.537979,100.650414,113.303230,133.943802,86.006836,266.317505,133.758896,75.282402,286.155792,117.322746,48.467052,280.430939,149.131119,37.328171
525,0,132.689072,212.952286,85.219978,216.716629,156.559326,100.636070,113.339218,133.992783,86.005058,266.327454,133.821030,75.291367,286.243225,117.400421,48.501865,280.407166,149.058456,37.344204
526,0,132.682968,212.985870,85.205437,216.734879,156.587555,100.654945,113.328644,133.991089,86.056267,266.372742,133.893417,75.292542,286.294495,117.469894,48.557564,280.431763,149.092041,37.320400
527,0,132.744125,213.005692,85.160866,216.793961,156.654556,100.619148,113.409683,134.031509,86.074173,266.452637,133.950882,75.348747,286.474243,117.552116,48.641815,280.512543,149.169983,37.317551
528,0,132.759415,213.044235,85.123482,216.919632,156.697464,100.628448,113.468002,134.081116,86.073250,266.546844,134.001572,75.369171,286.545807,117.577805,48.657990,280.551147,149.168121,37.277004
529,0,132.818390,213.095123,85.097473,217.013321,156.739624,100.656845,113.600380,134.096939,86.086784,266.669312,134.057327,75.402687,286.678345,117.620209,48.673897,280.449341,148.866959,37.031017
530,0,132.892731,213.136993,85.060394,217.162521,156.823257,100.662941,113.732178,134.206039,86.138283,266.835327,134.123199,75.436394,286.951141,117.694107,48.776020,280.588959,148.895111,36.992500
531,0,132.971741,213.211563,85.040138,217.352982,156.946991,100.693504,113.965607,134.259003,86.216270,267.075623,134.261276,75.541840,287.300354,117.783302,48.938374,280.759857,148.970642,36.946545
532,0,133.079254,213.270416,85.024574,217.572449,157.075836,100.778709,114.268501,134.880219,86.170326,267.338165,134.417480,75.657204,287.575867,117.958755,49.070957,280.914551,149.048691,36.924759
533,0,133.084122,213.365524,85.042915,217.770905,157.241898,100.952171,114.414833,134.580246,86.422920,267.547180,134.631012,75.860558,287.781403,118.216858,49.265518,281.037201,149.115570,36.916973
534,0,133.141464,213.691422,85.318504,217.964371,157.461777,101.299210,114.498772,134.751953,86.680725,267.744873,134.874802,76.237656,287.977844,118.499184,49.623180,281.102905,149.219528,37.068729
535,0,132.894287,213.599350,85.531059,217.987320,157.690857,101.797401,114.623222,134.892105,87.053001,267.923553,135.221420,76.875206,288.287323,118.919212,50.305248,281.226562,149.526596,37.694237
536,0,132.682480,213.741211,85.927948,218.001999,157.952057,102.747803,114.593246,135.124435,87.513451,268.042480,135.534088,77.867523,288.457153,119.313438,51.338715,281.604767,150.539810,38.833836
537,0,132.292328,213.903091,86.564201,217.868011,158.191437,104.205132,114.562103,135.721634,87.901306,268.084686,135.885956,79.539734,288.647888,119.825325,53.032761,281.917694,151.546814,40.405396
538,0,131.868729,214.078751,87.351318,217.619385,158.428940,106.159286,114.281303,135.580032,88.576660,268.123413,136.337570,81.836517,288.912018,120.428490,55.436695,282.159058,152.275314,42.490314
539,0,131.401413,214.292038,88.253914,217.174789,158.667496,108.565926,114.085007,135.896164,89.348442,268.068207,136.737167,84.813881,289.110596,120.906418,58.630558,282.592041,153.465149,45.481533
540,0,130.879532,214.483673,89.218292,216.678070,158.989746,111.368027,113.841759,136.622131,90.079674,267.970398,137.158249,88.312469,289.443970,121.372414,62.358891,283.182983,154.348694,49.052399
541,0,130.411880,214.700089,90.306229,216.086273,159.350601,114.492691,113.466621,136.538788,91.204811,267.753937,137.473389,92.254875,289.358429,121.778801,66.342285,283.669800,155.005478,53.076618
542,0,130.012817,214.953995,91.464699,215.409668,159.870163,117.739464,113.156532,137.353271,92.204994,267.476044,137.994217,96.332809,289.637177,121.991501,70.960907,284.366608,155.530685,57.472080
543,0,129.477371,215.184036,92.638603,214.644012,160.405075,121.082306,112.723007,137.185791,93.719231,267.082458,138.424942,100.498444,289.544556,122.248680,75.429825,284.706360,155.705948,61.963745
544,0,129.007660,215.427643,93.799088,213.805984,161.001328,124.487389,112.357170,138.005447,94.917923,266.626129,138.858994,104.718185,289.170288,122.412209,79.785278,284.808838,155.667465,66.346970
545,0,128.512650,215.636536,95.088997,212.904053,161.708771,127.946648,111.829834,137.886032,96.396339,266.037903,139.143066,108.881920,288.728668,122.602249,84.068123,284.817383,155.494385,70.598930
546,0,127.998978,215.869263,96.465210,211.955582,162.191406,131.145157,111.355438,138.168015,97.639931,265.275269,139.432266,112.784157,288.206909,122.787216,88.115257,284.495178,155.253571,74.604286
547,0,127.410088,216.071533,97.761147,210.939880,162.631973,134.200607,110.970268,138.817062,98.629723,264.520721,139.707672,116.474495,287.537903,122.895004,91.770081,284.294281,155.114639,78.432716
548,0,126.948624,216.201416,98.894379,209.848984,163.049515,137.222244,110.368027,138.517578,99.781250,263.667419,139.907104,120.035095,286.660919,122.872391,94.895203,284.002533,154.879669,82.007507
549,0,126.484451,216.293839,99.839279,208.664871,163.336639,140.114853,109.870415,138.708893,100.652847,262.823120,140.023621,123.429237,285.460571,122.738190,97.288025,283.724365,154.402390,85.211296
550,0,126.072083,216.394592,100.578148,207.450439,163.499298,143.003418,109.503815,138.796692,101.216537,261.846313,140.037064,126.670036,283.884674,122.435242,98.856529,283.088348,153.364731,87.923119
551,0,125.741821,216.405685,101.038551,206.173981,163.653107,145.840317,109.191429,138.856079,101.573753,260.900391,139.837799,129.735306,281.564575,121.814262,99.925682,282.089172,151.340012,89.889854
552,0,125.531418,216.377625,101.218948,204.894043,163.826233,148.462936,108.903076,138.840012,101.654572,259.865814,139.571075,132.607346,279.050995,121.254463,100.838501,280.930542,148.768677,91.711327
553,0,125.405624,216.314590,101.229095,203.662140,163.983582,150.738953,108.691833,138.748901,101.617477,258.843445,139.231674,135.322128,276.763489,120.732201,101.983994,278.848022,145.024170,92.634026
554,0,125.279266,216.175400,101.118958,202.470444,164.094574,152.727402,108.588417,139.005264,101.264336,257.772156,138.809296,137.747467,274.353394,119.917862,103.117584,276.619690,141.299301,93.608109
555,0,125.235039,215.981262,100.950256,201.393082,164.117645,154.261810,108.410629,138.467896,101.111061,256.830139,138.259872,139.631775,271.687775,118.801819,103.732857,274.535370,138.497650,94.498840
556,0,125.210686,215.728058,100.721779,200.508881,163.889435,155.458405,108.330177,138.234879,100.846581,255.920731,137.001862,141.104767,269.231720,117.376419,103.965782,272.877808,137.004440,94.943527
557,0,125.238731,215.436325,100.500511,199.872742,163.589264,156.277451,108.229485,137.956467,100.589638,255.158508,135.674545,142.255310,266.621887,116.398758,103.753662,270.630127,135.819641,94.503326
558,0,125.262840,215.158310,100.291412,199.393692,163.212921,156.812988,108.168793,137.757202,100.286583,254.765991,134.850677,142.809296,264.118744,115.798988,103.032509,268.676117,134.764771,93.932076
559,0,125.359818,214.890305,100.033012,199.085999,162.763611,157.104172,108.141144,137.415466,99.922844,254.543060,134.115723,142.902908,261.993683,115.287003,102.287315,266.810455,134.126282,93.334236
560,0,125.460060,214.663101,99.662033,198.826675,162.323318,157.242874,108.149368,137.120132,99.447693,254.225906,133.234406,142.866348,259.868042,114.875557,101.456383,265.134766,133.571350,92.887024
561,0,125.677216,214.469437,99.146622,198.643372,161.887939,157.181229,108.273621,136.906342,98.806747,253.957962,132.279953,142.697174,258.576385,114.370026,100.686584,263.423279,132.922791,91.898178
562,0,125.923424,214.265152,98.482712,198.562225,161.449310,157.055527,108.444992,137.167908,97.953651,253.727051,131.245712,142.283905,256.370728,113.874832,99.570648,262.024780,132.175095,91.356979
563,0,126.204002,214.076218,97.738243,198.574188,161.098267,156.972397,108.573387,136.604065,97.349831,253.425812,130.083313,141.514481,253.709641,113.633118,98.007835,259.298187,131.774521,89.933006
564,0,126.586021,213.852356,96.896683,198.572647,160.828156,156.928406,108.814415,136.393127,96.567924,253.041443,128.922073,140.500244,250.876694,113.480690,96.345985,257.265320,131.042496,88.926781
565,0,126.991211,213.602448,96.028305,198.673264,160.637741,156.846100,109.096367,136.556656,95.651886,252.635178,127.891960,139.445282,248.278580,113.379356,95.199448,254.177307,130.856750,87.555580
566,0,127.291916,213.340408,95.177254,198.771408,160.508224,156.810089,109.274940,135.915298,95.169327,252.284973,127.098022,138.382233,245.518372,113.676720,93.707108,251.635468,130.886383,86.301888
567,0,127.591743,213.105896,94.499481,198.858444,160.365814,156.778366,109.388184,135.719254,94.593536,252.041336,126.448647,137.369186,243.451553,114.089653,92.868408,249.458435,131.013214,85.613411
568,0,127.816154,212.863266,93.972054,199.034058,160.238174,156.817795,109.573486,135.491287,94.107338,251.783249,125.914322,136.308029,240.720062,114.781357,91.825829,246.654907,131.713837,84.107986
569,0,128.091797,212.660385,93.471642,199.144958,160.124573,156.967957,109.744461,135.243362,93.640648,251.435883,125.327393,135.305023,238.367905,115.471085,91.495583,243.558868,132.445145,83.086586
570,0,128.359589,212.499893,93.025597,199.149200,160.102005,157.235382,109.834938,135.064117,93.193016,250.885544,124.704895,134.396637,235.657944,115.745224,90.267334,241.090836,132.888641,82.706268
571,0,128.643890,212.301071,92.544807,199.139908,160.162170,157.647247,109.954735,134.869827,92.827759,250.136459,124.142403,133.580414,231.544708,117.373047,89.975296,238.270676,133.303284,82.724083
572,0,128.929871,212.098099,92.182404,198.979721,160.320435,158.168106,110.011391,134.629562,92.545410,249.187759,123.713333,132.794037,229.534225,117.958931,89.951805,235.412170,134.258057,81.786354
573,0,129.133377,211.879578,91.784904,198.765076,160.580643,158.790039,110.200569,134.858704,92.175537,248.072632,123.439224,131.951828,226.232498,119.011978,89.827393,232.022186,135.042618,81.755173
574,0,129.333603,211.657471,91.444832,198.545761,161.045563,159.477600,110.280785,134.624252,91.976807,246.823761,123.410286,131.190399,222.661819,120.118896,89.899139,229.657013,135.354370,81.984276
575,0,129.464691,211.466385,91.201172,198.273026,161.631363,160.237396,110.342186,134.445694,91.853676,245.533234,123.565643,130.426437,219.694901,121.034912,90.138725,226.509918,136.111984,82.397224
576,0,129.535706,211.296753,90.979637,197.983795,162.245163,160.954773,110.256271,133.867905,91.908287,244.237534,123.784973,129.918579,216.902832,121.878555,90.516907,222.166611,137.098892,81.223373
577,0,129.518311,211.196518,90.804131,197.653915,162.956329,161.586060,110.124832,133.699585,92.046860,243.106293,124.161591,129.603226,214.337357,122.565399,91.039154,220.266556,137.295776,82.045540
578,0,129.430435,211.192261,90.651054,197.260101,163.814240,162.096497,109.872879,133.686768,92.222923,241.889923,124.494049,129.306671,212.111282,123.180687,91.674942,218.032959,137.763596,82.869644
579,0,129.265457,211.262863,90.459351,196.879044,164.676117,162.558975,109.555931,133.813797,92.442924,240.643509,124.840363,129.127808,209.919006,123.669144,92.217934,214.415268,139.056686,82.449837
580,0,129.111511,211.356155,90.235703,196.446854,165.478912,162.866226,109.196274,133.939453,92.641380,239.172668,124.805695,128.836548,207.022934,124.055222,91.883835,212.590378,138.859344,82.624580
581,0,128.866714,211.442429,90.024544,196.035614,166.215897,162.947647,108.695160,134.103745,92.895546,237.884705,124.863998,128.523163,206.311478,124.188850,92.957024,209.485413,139.013077,83.220268
582,0,128.583374,211.528152,89.770393,195.740387,166.844849,162.789230,108.135399,134.249466,93.091034,236.808685,124.880241,128.117249,203.573792,124.379997,92.043762,208.934113,138.550034,83.113510
583,0,128.253479,211.616898,89.482674,195.573502,167.200806,162.446457,107.471428,134.394501,93.210052,235.882935,124.709602,127.398369,202.774216,124.180038,91.374557,207.801590,138.303726,83.101578
584,0,128.093430,211.651749,89.077698,195.484589,167.327209,161.881836,106.876534,134.471466,93.094597,235.041061,124.437973,126.426872,200.751114,124.243355,90.905594,206.095505,138.266251,82.121483
585,0,127.923279,211.690277,88.608864,195.462845,167.238953,161.078629,106.436478,134.507874,92.719933,234.316879,124.034950,125.136467,200.329788,124.039520,90.170952,205.403305,137.729019,81.840240
586,0,127.835258,211.671524,88.090706,195.559662,166.987183,159.935272,106.001686,134.540924,92.170876,233.755280,123.546898,123.534401,199.440018,123.718887,88.486694,204.709564,137.585541,80.501266
587,0,127.764404,211.618835,87.435722,195.840820,166.646774,158.537903,105.682869,134.471161,91.390160,233.399139,123.125237,121.496361,200.281097,123.712479,88.265900,202.874176,138.043106,78.049446
588,0,127.853172,211.554291,86.648987,196.351410,166.155960,156.876236,105.490440,134.376450,90.496254,233.272614,122.560661,119.219543,197.750458,123.641891,85.183624,202.112488,137.598160,76.281410
589,0,128.024445,211.442688,85.798706,197.012161,165.573761,155.111923,105.511597,134.196915,89.447289,233.172760,122.021637,116.717224,,,,202.118423,137.047714,75.290504
590,0,128.306839,211.313324,84.916794,197.746811,165.017212,153.267105,105.591591,133.987930,88.454727,233.298660,121.416908,114.175316,,,,201.498703,137.302032,72.407516
591,0,128.578033,211.117599,84.147636,198.610703,164.481354,151.456696,105.694679,133.712402,87.532654,233.436905,120.888405,111.756874,,,,201.737549,136.711304,70.863274
592,0,128.857620,210.917435,83.395576,199.427673,164.073349,149.763245,105.872734,133.448929,86.809975,233.512131,120.331932,109.602921,,,,201.682877,136.195938,69.643311
593,0,129.142395,210.671173,82.727859,200.228958,163.790466,148.287384,106.018791,133.216217,86.326691,233.602722,119.740250,107.856979,,,,200.580231,136.168961,67.474251
594,0,129.415268,210.476089,82.199234,200.924408,163.616135,147.164322,106.140549,133.023438,86.038437,233.749008,119.229103,106.502815,,,,200.442078,135.628036,66.427193
595,0,129.578949,210.326355,81.804764,201.489136,163.491928,146.323166,106.266273,132.911270,85.794533,233.870834,118.913368,105.572769,,,,200.653839,135.069473,65.680908
596,0,129.714584,210.234619,81.575371,201.877808,163.381104,145.788757,106.404984,132.799118,85.653229,233.933502,118.687943,104.895340,,,,200.714828,134.650696,65.480316
597,0,129.830627,210.226440,81.458473,202.229034,163.376205,145.420563,106.490555,132.794235,85.620224,233.951843,118.513733,104.469933,,,,200.387573,134.617233,65.258209
598,0,129.951706,210.211563,81.240814,202.451126,163.480774,145.151672,106.577888,132.803864,85.608055,233.909195,118.396957,104.238022,,,,200.227234,134.453552,65.040306
599,0,130.058868,210.212723,80.998520,202.629181,163.671249,144.930374,106.633247,132.815079,85.608932,233.897400,118.333923,104.120682,,,,200.070007,134.263321,64.973602
600,0,130.173721,210.216766,80.798904,202.719742,163.897446,144.743866,106.674530,132.866516,85.610847,233.851578,118.309738,104.046722,,,,199.934189,134.153931,64.885689
