Trajectories
100
,,Sano:Wrist,,,Sano:MPH3,,,Sano:PIP3,,,Sano:DIP3,,,
Frame,Sub Frame,X,Y,Z,X,Y,Z,X,Y,Z,X,Y,Z
,,mm,mm,mm,mm,mm,mm,mm,mm,mm,mm,mm,mm
1,0,-128.801025,157.329208,38.657070,-31.531830,71.132019,53.447075,9.595132,35.994999,49.303555,34.046181,4.346477,31.749815
2,0,-128.814819,157.288498,38.656288,-31.533926,71.112427,53.430553,9.571244,36.000137,49.323002,34.026455,4.325565,31.721376
3,0,-128.827133,157.274353,38.675720,-31.572479,71.134811,53.441036,9.572892,35.981678,49.325356,34.049702,4.334188,31.739340
4,0,-128.822556,157.271042,38.681889,-31.544716,71.097054,53.463196,9.588824,35.958008,49.337852,34.052696,4.338417,31.735916
5,0,-128.818726,157.275833,38.682194,-31.558834,71.108261,53.466576,9.613371,35.944542,49.315426,34.055920,4.342173,31.735893
6,0,-128.809540,157.254013,38.675098,-31.526859,71.114151,53.455357,9.593938,35.972805,49.293304,34.058403,4.336380,31.746138
7,0,-128.806915,157.262085,38.658703,-31.519722,71.133034,53.450153,9.627955,35.945728,49.304340,34.065594,4.336092,31.751663
8,0,-128.804733,157.255798,38.674801,-31.519960,71.146042,53.434753,9.618651,35.937397,49.309586,34.068306,4.337801,31.754896
9,0,-128.804031,157.212524,38.667263,-31.529825,71.120026,53.423943,9.585801,35.994244,49.323444,34.072388,4.328225,31.762362
10,0,-128.785141,157.195038,38.703690,-31.556789,71.138191,53.412834,9.614321,35.994682,49.357487,34.094517,4.411821,31.766445
11,0,-128.808746,157.199417,38.689701,-31.542500,71.125237,53.439526,9.573087,35.959007,49.317951,34.083500,4.324545,31.781013
12,0,-128.826691,157.179855,38.683502,-31.555895,71.115013,53.409554,9.626506,35.956470,49.344311,34.114071,4.393850,31.746849
13,0,-128.834091,157.138535,38.686722,-31.526342,71.092758,53.423943,9.630558,35.960178,49.358070,34.109989,4.390255,31.752501
14,0,-128.869537,157.144623,38.692719,-31.576551,71.083305,53.431755,9.547521,35.916477,49.308022,34.073898,4.344145,31.787027
15,0,-128.870819,157.152786,38.731018,-31.590693,71.059357,53.433533,9.515004,35.943466,49.303288,34.077351,4.317067,31.772102
16,0,-128.882599,157.149857,38.726353,-31.597696,71.068596,53.446899,9.559040,35.947044,49.332470,34.114624,4.378971,31.753246
17,0,-128.888092,157.106186,38.749878,-31.595026,71.049591,53.440868,9.533407,35.930054,49.332794,34.081573,4.313187,31.811203
18,0,-128.879684,157.111938,38.779472,-31.611603,71.076286,53.440952,9.562843,35.938148,49.346798,34.115627,4.388750,31.792492
19,0,-128.957932,157.096802,38.769203,-31.594780,71.021240,53.450245,9.511857,35.901619,49.345184,34.073544,4.315529,31.779390
20,0,-128.949661,157.068695,38.789555,-31.632502,71.043091,53.431915,9.507362,35.892727,49.337704,34.076618,4.295368,31.795111
21,0,-128.973755,157.071747,38.828373,-31.624235,71.044762,53.431953,9.506087,35.904129,49.322433,34.074085,4.277699,31.779785
22,0,-128.952332,157.069473,38.825008,-31.631599,71.051758,53.444744,9.558175,35.925049,49.352322,34.146645,4.345232,31.804026
23,0,-128.982895,157.076385,38.824566,-31.628347,71.055573,53.441906,9.513621,35.900604,49.317589,34.059109,4.294750,31.765230
24,0,-128.973892,157.074509,38.827316,-31.627718,71.054947,53.441063,9.540254,35.927967,49.334789,34.086735,4.370474,31.742565
25,0,-128.922592,157.115265,38.831890,-31.597275,71.018227,53.427124,9.546632,35.936752,49.330074,34.096130,4.372585,31.762737
26,0,-128.909103,157.122574,38.825859,-31.607025,71.025841,53.437332,9.555752,35.926956,49.370323,34.100945,4.376290,31.758297
27,0,-128.917542,157.096924,38.846752,-31.624142,71.034950,53.435715,9.533139,35.942345,49.355904,34.109806,4.371981,31.769314
28,0,-128.912109,157.112198,38.836658,-31.581062,71.037094,53.476921,9.499383,35.915905,49.318108,34.081940,4.299946,31.791080
29,0,-128.888901,157.092346,38.839607,-31.593065,71.017532,53.445339,9.548292,35.922131,49.362843,34.082447,4.362196,31.768173
30,0,-128.879227,157.145676,38.841000,-31.591974,71.024719,53.435215,9.526660,35.919746,49.332359,34.112255,4.380624,31.753809
31,0,-128.848068,157.115921,38.856571,-31.610430,71.010124,53.420547,9.549492,35.909645,49.342262,34.108242,4.370306,31.753559
32,0,-128.885284,157.144531,38.887871,-31.611633,71.006958,53.420868,9.533648,35.924789,49.346764,34.098518,4.339871,31.761103
33,0,-128.851700,157.116013,38.894386,-31.613234,71.007843,53.410839,9.514956,35.889332,49.327412,34.079689,4.342306,31.751059
34,0,-128.897385,157.160309,38.914169,-31.644051,71.050163,53.415188,9.501899,35.925705,49.308006,34.051716,4.358408,31.732845
35,0,-128.844559,157.146240,38.923046,-31.604338,71.014679,53.425255,9.514328,35.906315,49.345928,34.068871,4.374283,31.758812
36,0,-128.844742,157.132782,38.924953,-31.602554,70.996964,53.431591,9.553665,35.914825,49.371181,34.082676,4.350895,31.772629
37,0,-128.835800,157.158325,38.932121,-31.606409,71.009796,53.438007,9.564586,35.913708,49.358231,34.088821,4.347493,31.767916
38,0,-128.833862,157.151428,38.955227,-31.602886,70.999619,53.429157,9.537200,35.912830,49.331139,34.065643,4.369839,31.741760
39,0,-128.853790,157.179016,38.959202,-31.590059,71.009750,53.439404,9.563220,35.920017,49.341835,34.088627,4.349200,31.746399
40,0,-128.841415,157.202560,38.982410,-31.587101,71.020531,53.446667,9.550991,35.912418,49.335484,34.077282,4.341647,31.758636
41,0,-128.799713,157.189163,38.994289,-31.584036,71.022110,53.446800,9.552619,35.886333,49.352165,34.076023,4.343144,31.758242
42,0,-128.796753,157.193176,38.977245,-31.594120,71.001610,53.426727,9.545187,35.884621,49.355400,34.097824,4.340856,31.769045
43,0,-128.807297,157.219833,38.991726,-31.583927,71.016708,53.428326,9.566975,35.900093,49.364853,34.074257,4.339382,31.762823
44,0,-128.771561,157.203659,39.013264,-31.583775,71.024750,53.448479,9.575819,35.898846,49.365608,34.099129,4.335262,31.769999
45,0,-128.788971,157.209961,39.002167,-31.548325,71.021515,53.486664,9.578669,35.896263,49.367077,34.113243,4.330045,31.765934
46,0,-128.782211,157.209976,38.997425,-31.549591,71.023766,53.482292,9.531212,35.879650,49.319134,34.090790,4.256377,31.781897
47,0,-128.764694,157.219666,38.997208,-31.536766,71.033470,53.471310,9.568078,35.921440,49.358841,34.138256,4.355599,31.781540
48,0,-128.762268,157.238602,38.995617,-31.546574,71.054428,53.466877,9.583623,35.897335,49.355228,34.118973,4.372962,31.759609
49,0,-128.766663,157.254120,38.988583,-31.558197,71.047569,53.473400,9.567689,35.918381,49.362835,34.115383,4.379289,31.749971
50,0,-128.763748,157.244400,38.969765,-31.554167,71.056213,53.454720,9.572478,35.921467,49.354298,34.102222,4.393895,31.745543
51,0,-128.773163,157.242538,38.988930,-31.562340,71.060211,53.445553,9.567826,35.922024,49.340260,34.108879,4.352273,31.755022
52,0,-128.774780,157.273972,38.986290,-31.564623,71.056709,53.447250,9.567087,35.918430,49.346947,34.100136,4.355508,31.760286
53,0,-128.793396,157.280731,38.985661,-31.563368,71.052444,53.470535,9.573987,35.939266,49.348152,34.076729,4.358746,31.753239
54,0,-128.778488,157.260986,38.990383,-31.571489,71.060448,53.458542,9.563310,35.951832,49.326389,34.075344,4.355196,31.757620
55,0,-128.768677,157.271637,38.992470,-31.590458,71.087906,53.461224,9.558763,35.942856,49.350746,34.101776,4.366171,31.752941
56,0,-128.783447,157.275009,39.010414,-31.555899,71.056458,53.469833,9.553701,35.947121,49.342270,34.083515,4.374699,31.753489
57,0,-128.779984,157.289078,39.034641,-31.569328,71.060913,53.466831,9.557478,35.958221,49.331779,34.083241,4.384695,31.756226
58,0,-128.804794,157.300934,39.025948,-31.576969,71.061089,53.473339,9.563347,35.962811,49.329853,34.093849,4.411034,31.737827
59,0,-128.766861,157.308197,39.032280,-31.561441,71.063202,53.466187,9.549406,35.956703,49.319397,34.109676,4.403387,31.730370
60,0,-128.762451,157.305206,39.041996,-31.541750,71.044273,53.477631,9.557466,35.953033,49.337437,34.079380,4.381695,31.742889
61,0,-128.765106,157.297333,39.055889,-31.542738,71.045334,53.481129,9.567846,35.950760,49.326019,34.106487,4.380945,31.745438
62,0,-128.772842,157.303726,39.050751,-31.561625,71.056473,53.484810,9.557731,35.953335,49.319679,34.061577,4.391079,31.737101
63,0,-128.779358,157.325180,39.069939,-31.577106,71.069336,53.487469,9.552181,35.938293,49.329685,34.063042,4.379823,31.752918
64,0,-128.761429,157.352280,39.084282,-31.545588,71.047173,53.488667,9.549281,35.941807,49.345783,34.061642,4.380509,31.758633
65,0,-128.773636,157.342346,39.081619,-31.574715,71.059700,53.480339,9.548270,35.945972,49.345776,34.058872,4.381041,31.757519
66,0,-128.757996,157.370132,39.099648,-31.543056,71.076553,53.483162,9.559078,35.940319,49.333786,34.096691,4.355442,31.781626
67,0,-128.758224,157.375443,39.114758,-31.545834,71.073959,53.507114,9.556567,35.931015,49.327309,34.067562,4.370024,31.750635
68,0,-128.722778,157.391586,39.138802,-31.563797,71.075348,53.503998,9.564161,35.935905,49.342487,34.069958,4.371181,31.745989
69,0,-128.694336,157.399414,39.157516,-31.561020,71.074196,53.505432,9.562492,35.928535,49.345421,34.084320,4.386708,31.748381
70,0,-128.721405,157.429321,39.198875,-31.542183,71.077148,53.509426,9.566181,35.922729,49.369789,34.069431,4.374988,31.737453
71,0,-128.681503,157.428345,39.192467,-31.539396,71.079002,53.512081,9.581779,35.944065,49.374771,34.061398,4.386372,31.749651
72,0,-128.692139,157.430893,39.222839,-31.533674,71.083786,53.528042,9.533340,35.906677,49.307537,34.071636,4.328774,31.778782
73,0,-128.660095,157.456116,39.219238,-31.536505,71.079193,53.534492,9.576583,35.916187,49.330719,34.091797,4.405675,31.761642
74,0,-128.665680,157.490265,39.223282,-31.542227,71.078583,53.531654,9.563055,35.953506,49.335110,34.080246,4.373444,31.739016
75,0,-128.664215,157.511642,39.254871,-31.521402,71.082909,53.537582,9.565035,35.928036,49.371708,34.081291,4.385942,31.757597
76,0,-128.647659,157.507202,39.256607,-31.512897,71.115639,53.543488,9.593711,35.972622,49.384140,34.084110,4.386803,31.757538
77,0,-128.635239,157.519089,39.259617,-31.490795,71.121117,53.546268,9.574347,35.964893,49.374535,34.069202,4.426211,31.745468
78,0,-128.626953,157.539597,39.278469,-31.488091,71.117256,53.555336,9.602371,35.942902,49.372501,34.109879,4.398357,31.766172
79,0,-128.634415,157.544296,39.279243,-31.481255,71.113083,53.576981,9.634299,35.962555,49.380188,34.112190,4.395946,31.769209
80,0,-128.629318,157.556519,39.306553,-31.465773,71.114227,53.561192,9.638535,35.966854,49.398754,34.110168,4.378962,31.777956
81,0,-128.644684,157.567047,39.327271,-31.492033,71.127968,53.595291,9.547440,35.948025,49.355350,34.083870,4.327049,31.785294
82,0,-128.658920,157.582718,39.343864,-31.513809,71.152519,53.583767,9.536842,35.950562,49.346600,34.067982,4.328046,31.800016
83,0,-128.668182,157.587479,39.336445,-31.507961,71.126945,53.572865,9.568062,35.970615,49.370930,34.085037,4.406392,31.796791
84,0,-128.646027,157.577011,39.320274,-31.525139,71.120468,53.591808,9.569965,35.971981,49.387634,34.055626,4.412638,31.780149
85,0,-128.662064,157.590408,39.329056,-31.505663,71.115570,53.564320,9.595786,35.973900,49.391029,34.068794,4.383346,31.793407
86,0,-128.714340,157.593735,39.323875,-31.535778,71.115051,53.557175,9.560092,35.955406,49.384102,34.072956,4.385808,31.791441
87,0,-128.668213,157.588211,39.295864,-31.532076,71.119804,53.546638,9.559651,35.949291,49.392036,34.064342,4.387607,31.787195
88,0,-128.691788,157.573853,39.292301,-31.543251,71.106133,53.516525,9.570787,35.971813,49.382286,34.065098,4.397097,31.785231
89,0,-128.680695,157.567810,39.295364,-31.563654,71.106186,53.547398,9.516386,35.940601,49.334976,34.028004,4.331886,31.806421
90,0,-128.643646,157.563889,39.275009,-31.558420,71.146751,53.553581,9.542583,35.965996,49.381260,34.048969,4.409196,31.789515
91,0,-128.675385,157.575958,39.266998,-31.558376,71.148079,53.553932,9.509003,35.929962,49.354515,34.024811,4.326482,31.817030
92,0,-128.675064,157.566025,39.291096,-31.559416,71.145439,53.566242,9.563827,35.966209,49.383213,34.069210,4.413755,31.787258
93,0,-128.702148,157.570343,39.323193,-31.535254,71.101906,53.577473,9.574988,35.927956,49.389069,34.047886,4.398064,31.787270
94,0,-128.683182,157.545914,39.295971,-31.531498,71.088638,53.600426,9.541612,35.962074,49.394020,34.041996,4.404837,31.796329
95,0,-128.679321,157.562744,39.320583,-31.556021,71.117325,53.601761,9.543020,35.950443,49.385441,34.066097,4.387110,31.772800
96,0,-128.739410,157.581818,39.337650,-31.529388,71.077278,53.622898,9.555362,35.944695,49.401825,34.075466,4.409802,31.798683
97,0,-128.692566,157.581543,39.328129,-31.553041,71.130890,53.613686,9.554146,35.971302,49.383991,34.061913,4.417176,31.794384
98,0,-128.756638,157.601776,39.317028,-31.550262,71.150970,53.605637,9.571215,35.978958,49.372974,34.024944,4.447474,31.782448
99,0,-128.763779,157.648285,39.299519,-31.557411,71.167732,53.598331,9.561019,35.989792,49.373272,34.033131,4.458138,31.783890
100,0,-128.750488,157.653366,39.303581,-31.569023,71.169846,53.581257,9.564268,35.987850,49.370964,34.024124,4.431921,31.791378
101,0,-128.741486,157.628021,39.240856,-31.564232,71.157486,53.559048,9.533523,35.979267,49.384987,34.006470,4.439997,31.786222
102,0,-128.752411,157.643250,39.220768,-31.569790,71.144066,53.550610,9.537872,35.975632,49.372322,34.026218,4.436110,31.791042
103,0,-128.735123,157.621613,39.194527,-31.582560,71.163254,53.522766,9.506690,36.020771,49.347351,34.018242,4.468269,31.770624
104,0,-128.709000,157.629684,39.157688,-31.597107,71.158501,53.508858,9.504709,36.000084,49.343964,34.000038,4.438876,31.777691
105,0,-128.714508,157.631378,39.133102,-31.579205,71.152336,53.508556,9.506886,35.997749,49.328117,33.999290,4.443939,31.773298
106,0,-128.698380,157.607208,39.095898,-31.577700,71.151222,53.511349,9.534616,35.999218,49.347622,34.006145,4.444085,31.779587
107,0,-128.701981,157.614822,39.130383,-31.587343,71.149025,53.515038,9.502519,36.011856,49.330338,33.999790,4.448768,31.766438
108,0,-128.701111,157.614426,39.130623,-31.574209,71.144257,53.517826,9.534048,35.974606,49.373337,34.027103,4.439476,31.789091
109,0,-128.662140,157.651108,39.127052,-31.570915,71.159126,53.518990,9.531917,35.975391,49.342865,34.048428,4.413334,31.783644
110,0,-128.674622,157.640778,39.110958,-31.555210,71.158615,53.547359,9.548079,35.971142,49.361183,34.035126,4.430897,31.770535
111,0,-128.660294,157.654663,39.110840,-31.551647,71.195518,53.525227,9.554939,35.993561,49.340195,34.064457,4.440765,31.774071
112,0,-128.650574,157.694626,39.072433,-31.533566,71.197350,53.517796,9.558109,36.025673,49.331421,34.040974,4.452041,31.763878
113,0,-128.643448,157.695663,39.092335,-31.523521,71.196709,53.493637,9.515531,35.998734,49.334831,34.030994,4.353236,31.779926
114,0,-128.623260,157.679352,39.018524,-31.523834,71.207733,53.471447,9.569385,36.014847,49.343163,34.045547,4.460309,31.785938
115,0,-128.620987,157.680832,39.004395,-31.548470,71.239853,53.471245,9.564076,36.029297,49.317753,34.033829,4.458251,31.784340
116,0,-128.626190,157.713318,38.961308,-31.527636,71.246651,53.437664,9.517070,36.003246,49.268524,34.011036,4.385916,31.776405
117,0,-128.632675,157.648010,38.913509,-31.550533,71.200996,53.437653,9.562125,36.003418,49.323719,34.057735,4.456324,31.770914
118,0,-128.636276,157.612976,38.876312,-31.581022,71.216057,53.409515,9.546374,36.023312,49.288559,34.045986,4.443573,31.756084
119,0,-128.588470,157.610428,38.839951,-31.581367,71.203720,53.390488,9.548725,36.022491,49.289242,34.034733,4.423958,31.750538
120,0,-128.645721,157.589203,38.793457,-31.574406,71.201233,53.382629,9.535417,36.005314,49.283146,34.036140,4.439210,31.734369
121,0,-128.629700,157.554947,38.802322,-31.591490,71.194641,53.406876,9.505698,36.008400,49.319786,34.045223,4.438601,31.759109
122,0,-128.668457,157.571198,38.770214,-31.573339,71.196976,53.413216,9.526298,35.998146,49.287189,34.045547,4.451999,31.775717
123,0,-128.635574,157.535950,38.759941,-31.580706,71.221596,53.381203,9.511159,36.001350,49.268265,34.018097,4.381404,31.788681
124,0,-128.628952,157.539047,38.730270,-31.557045,71.195747,53.373272,9.540447,36.026047,49.283604,34.068657,4.428151,31.762205
125,0,-128.599976,157.573792,38.719360,-31.546381,71.195663,53.364998,9.549651,36.021164,49.315575,34.071663,4.428998,31.760838
126,0,-128.630020,157.566742,38.720798,-31.572842,71.227852,53.377430,9.550673,36.035629,49.300674,34.065605,4.430876,31.759008
127,0,-128.640854,157.551010,38.701931,-31.571903,71.229881,53.372242,9.558436,36.026581,49.319118,34.065697,4.434960,31.761374
128,0,-128.615845,157.535538,38.689926,-31.549484,71.240662,53.375980,9.564823,36.015873,49.336308,34.071312,4.429821,31.762495
129,0,-128.634521,157.541550,38.680515,-31.552670,71.197395,53.391262,9.559721,36.019054,49.325623,34.075581,4.423750,31.762545
130,0,-128.632599,157.531891,38.650330,-31.567535,71.219902,53.384224,9.515403,36.012329,49.274349,34.042324,4.361257,31.795963
131,0,-128.602371,157.496765,38.635975,-31.563129,71.212158,53.372032,9.535697,36.032341,49.283062,34.036880,4.343216,31.793806
132,0,-128.593079,157.480850,38.646797,-31.557322,71.218071,53.357758,9.527842,36.023018,49.281242,34.046673,4.346364,31.788692
133,0,-128.618103,157.501938,38.643944,-31.542809,71.176010,53.381905,9.542249,36.014259,49.299332,34.051373,4.332571,31.787764
134,0,-128.606750,157.498459,38.615959,-31.557838,71.218933,53.356285,9.572830,36.028214,49.315037,34.066662,4.428365,31.760544
135,0,-128.626480,157.505493,38.617188,-31.571552,71.236755,53.341774,9.503357,36.019127,49.279278,34.033981,4.364391,31.786230
136,0,-128.631973,157.505203,38.614742,-31.571571,71.237038,53.343426,9.551515,36.035027,49.304108,34.066715,4.428758,31.752680
137,0,-128.630737,157.505386,38.613239,-31.576321,71.240829,53.350594,9.538770,36.039886,49.303181,34.083210,4.429248,31.758305
138,0,-128.631882,157.529129,38.642323,-31.561562,71.233635,53.351624,9.499961,36.039383,49.269955,34.028160,4.386456,31.781153
139,0,-128.636353,157.539078,38.679359,-31.580284,71.234444,53.354721,9.545229,36.062542,49.304260,34.081547,4.445085,31.757870
140,0,-128.611786,157.530869,38.691086,-31.562141,71.240906,53.396873,9.489039,36.024792,49.279480,34.033714,4.385437,31.790464
141,0,-128.637924,157.534485,38.689747,-31.534645,71.191513,53.393856,9.491660,36.019905,49.295609,34.038235,4.380328,31.791414
142,0,-128.622269,157.526367,38.702484,-31.561390,71.209518,53.388824,9.491597,36.032429,49.281475,34.040100,4.382620,31.797945
143,0,-128.637207,157.532837,38.702137,-31.558495,71.224876,53.422306,9.524619,36.010136,49.304810,34.058365,4.375882,31.796448
144,0,-128.616119,157.544266,38.698902,-31.544033,71.209274,53.405037,9.552881,36.048767,49.327953,34.081841,4.431704,31.764065
145,0,-128.616638,157.556046,38.701046,-31.532690,71.196106,53.379776,9.507955,36.025764,49.300407,34.041553,4.356995,31.777855
146,0,-128.573654,157.549286,38.720753,-31.557505,71.241837,53.401939,9.516127,36.017227,49.294407,34.034023,4.366913,31.785465
147,0,-128.621094,157.579254,38.726406,-31.580725,71.257622,53.383644,9.508549,36.022110,49.285999,34.060764,4.358706,31.790144
148,0,-128.620163,157.525314,38.711979,-31.561878,71.230408,53.388176,9.557392,36.019459,49.320580,34.084999,4.433380,31.773579
149,0,-128.638885,157.544876,38.707664,-31.566959,71.238892,53.388660,9.531081,36.007576,49.290413,34.034222,4.355375,31.787560
150,0,-128.640701,157.534805,38.691593,-31.559452,71.232956,53.380833,9.595666,36.081631,49.322227,34.067616,4.423234,31.760927
151,0,-128.640549,157.536636,38.688709,-31.557352,71.255684,53.380199,9.566213,36.073654,49.290833,34.063969,4.452743,31.764824
152,0,-128.654327,157.526962,38.672146,-31.560291,71.257820,53.371979,9.583397,36.074474,49.304214,34.074856,4.436513,31.769022
153,0,-128.665909,157.472626,38.691669,-31.563633,71.235847,53.384399,9.595917,36.034367,49.313793,34.079308,4.430178,31.774807
154,0,-128.670334,157.473312,38.696484,-31.536219,71.178627,53.394604,9.580476,36.045128,49.320904,34.064434,4.437715,31.770195
155,0,-128.731918,157.431717,38.693020,-31.538271,71.177505,53.398804,9.573586,36.039867,49.319843,34.085377,4.446138,31.762384
156,0,-128.722534,157.412994,38.686855,-31.562380,71.158859,53.399147,9.563784,36.020332,49.350452,34.093311,4.442232,31.792562
157,0,-128.748901,157.357986,38.690964,-31.595509,71.145187,53.425117,9.515583,36.007961,49.311512,34.057327,4.364387,31.789314
158,0,-128.780380,157.342773,38.726345,-31.601858,71.150848,53.419151,9.568274,36.022602,49.338081,34.079983,4.423895,31.793665
159,0,-128.796051,157.330215,38.690811,-31.603590,71.150604,53.416546,9.558615,36.009579,49.350777,34.087505,4.425969,31.790216
160,0,-128.840164,157.329422,38.690830,-31.600025,71.150299,53.419632,9.566163,36.005909,49.331959,34.088799,4.421519,31.770847
161,0,-128.822495,157.300858,38.692844,-31.585384,71.127487,53.433712,9.566537,36.008301,49.325134,34.066975,4.419156,31.766153
162,0,-128.799408,157.273544,38.670399,-31.607244,71.117386,53.430367,9.561963,36.011818,49.324997,34.101063,4.421865,31.769245
163,0,-128.829788,157.263123,38.672924,-31.573996,71.106735,53.422661,9.563066,36.010914,49.328182,34.102257,4.409619,31.789679
164,0,-128.785370,157.241653,38.654720,-31.589914,71.119797,53.433159,9.525685,35.961483,49.293152,34.086903,4.325695,31.780052
165,0,-128.780411,157.244446,38.646255,-31.572279,71.119370,53.410767,9.523931,35.984871,49.294968,34.066334,4.344142,31.765175
166,0,-128.781357,157.256866,38.624332,-31.581987,71.155701,53.407940,9.530122,35.977001,49.285141,34.084953,4.327642,31.777225
167,0,-128.778793,157.243271,38.639435,-31.552568,71.117989,53.415504,9.574489,36.000740,49.312252,34.094769,4.393011,31.752649
168,0,-128.777145,157.273880,38.640678,-31.575703,71.136551,53.402084,9.526956,35.974766,49.281822,34.086346,4.314364,31.767208
169,0,-128.755142,157.282211,38.647041,-31.559259,71.127464,53.397816,9.526768,35.980450,49.270836,34.088463,4.359042,31.780209
170,0,-128.752823,157.309723,38.660694,-31.552866,71.131279,53.395298,9.574110,36.017021,49.309269,34.111477,4.399682,31.753145
171,0,-128.722824,157.327133,38.698940,-31.550180,71.159760,53.398033,9.651379,36.002125,49.332615,34.116230,4.420772,31.758774
172,0,-128.678589,157.318161,38.653862,-31.538609,71.164902,53.391060,9.627605,36.027523,49.321373,34.115608,4.421831,31.754009
173,0,-128.667984,157.356003,38.684490,-31.531639,71.161530,53.380749,9.575541,36.016525,49.270565,34.096752,4.364874,31.774920
174,0,-128.672653,157.335373,38.709179,-31.545624,71.156647,53.398758,9.657394,36.021957,49.345497,34.115372,4.444274,31.762573
175,0,-128.653931,157.344742,38.705791,-31.520922,71.159187,53.397194,9.682620,36.021980,49.348160,34.115887,4.443024,31.770039
176,0,-128.669403,157.367859,38.676098,-31.532791,71.169411,53.385693,9.584744,36.011154,49.287094,34.086582,4.363487,31.779736
177,0,-128.636047,157.363571,38.695007,-31.528805,71.167076,53.391052,9.645275,36.028671,49.315376,34.111984,4.425278,31.763073
178,0,-128.622208,157.366516,38.688847,-31.526930,71.168488,53.393677,9.644567,36.040981,49.319645,34.102314,4.433101,31.760406
179,0,-128.598694,157.378601,38.706032,-31.530067,71.178673,53.400757,9.648579,36.017635,49.351841,34.121216,4.444755,31.772167
180,0,-128.585098,157.402740,38.705948,-31.527407,71.177452,53.390667,9.592221,36.052315,49.340279,34.123520,4.433595,31.780474
181,0,-128.577377,157.405487,38.675095,-31.522490,71.169113,53.372875,9.656129,36.058220,49.346863,34.122540,4.433325,31.772402
182,0,-128.543869,157.380096,38.667995,-31.524115,71.167809,53.374973,9.633305,36.031300,49.335403,34.107449,4.440959,31.764719
183,0,-128.556702,157.380142,38.674858,-31.529978,71.190987,53.367527,9.669283,36.031185,49.334274,34.102737,4.427217,31.766966
184,0,-128.569931,157.391861,38.692383,-31.534954,71.191360,53.361519,9.630143,36.043240,49.353050,34.117340,4.406214,31.770922
185,0,-128.572891,157.412430,38.659943,-31.538322,71.195808,53.377174,9.674560,36.032730,49.339310,34.117302,4.420907,31.767752
186,0,-128.538010,157.388916,38.681267,-31.537939,71.179855,53.360706,9.668695,36.015053,49.330173,34.127121,4.399373,31.739283
187,0,-128.540695,157.388794,38.683006,-31.532639,71.180054,53.356777,9.672376,36.016331,49.332905,34.122650,4.419927,31.767040
188,0,-128.548325,157.401749,38.664627,-31.531088,71.186279,53.393593,9.673637,36.027668,49.342003,34.122864,4.432198,31.749546
189,0,-128.556915,157.439758,38.711803,-31.490702,71.207687,53.409637,9.651812,36.055809,49.339809,34.122444,4.415186,31.769581
190,0,-128.536301,157.408478,38.697094,-31.518444,71.216606,53.387154,9.651155,36.053993,49.339840,34.117275,4.421214,31.788372
191,0,-128.546036,157.453232,38.668423,-31.506472,71.230988,53.387402,9.656036,36.055172,49.344028,34.121227,4.438112,31.765371
192,0,-128.513840,157.420990,38.644993,-31.524799,71.224419,53.374531,9.664312,36.072269,49.343952,34.108818,4.457167,31.759720
193,0,-128.523254,157.409271,38.637089,-31.526022,71.226463,53.386280,9.671699,36.048565,49.337341,34.138783,4.450932,31.778769
194,0,-128.514145,157.410553,38.627399,-31.529900,71.235626,53.371494,9.670200,36.038528,49.326557,34.101788,4.445289,31.769648
195,0,-128.474030,157.385788,38.594730,-31.538717,71.217323,53.360027,9.669576,36.035645,49.327293,34.110828,4.449191,31.785883
196,0,-128.501434,157.387619,38.619087,-31.548351,71.209618,53.380768,9.645800,36.058506,49.356064,34.129589,4.461410,31.796303
197,0,-128.491943,157.391479,38.616489,-31.522005,71.203094,53.399590,9.654588,36.032379,49.336845,34.130531,4.480154,31.795862
198,0,-128.527786,157.378098,38.632927,-31.523369,71.205673,53.393913,9.668424,36.037498,49.356617,34.120811,4.464223,31.783131
199,0,-128.545563,157.396133,38.680679,-31.539577,71.224350,53.413315,9.678166,36.030834,49.341629,34.126381,4.463864,31.793043
200,0,-128.543411,157.411667,38.651455,-31.555693,71.233421,53.413353,9.616691,36.030746,49.315365,34.100040,4.385133,31.777088
201,0,-128.528305,157.423294,38.684937,-31.549904,71.251236,53.442879,9.603724,36.075504,49.324345,34.086708,4.415693,31.780441
202,0,-128.578323,157.444839,38.676605,-31.542261,71.264320,53.428543,9.634188,36.100388,49.336300,34.117565,4.478369,31.774294
203,0,-128.549957,157.467178,38.650612,-31.528297,71.257210,53.422775,9.663934,36.088486,49.334076,34.117321,4.501605,31.780458
204,0,-128.540924,157.470535,38.627762,-31.556654,71.280991,53.391327,9.620173,36.122105,49.315918,34.104313,4.514803,31.764608
205,0,-128.579956,157.481857,38.583698,-31.565565,71.295357,53.377945,9.604141,36.124607,49.302666,34.075111,4.524066,31.744120
206,0,-128.525101,157.431534,38.568943,-31.569336,71.295303,53.380699,9.623036,36.123341,49.314243,34.111313,4.517401,31.738728
207,0,-128.514923,157.419113,38.542866,-31.572327,71.288338,53.394894,9.629541,36.113258,49.302811,34.072578,4.520244,31.769154
208,0,-128.538025,157.429321,38.491795,-31.548203,71.261635,53.387806,9.604274,36.144337,49.312592,34.072014,4.549073,31.759773
209,0,-128.573471,157.413879,38.456131,-31.593584,71.222672,53.380314,9.591124,36.097622,49.323650,34.032845,4.493206,31.765207
210,0,-128.557739,157.354752,38.423054,-31.598701,71.214363,53.350040,9.575767,36.059937,49.325806,34.057781,4.458526,31.780161
211,0,-128.538147,157.344086,38.389828,-31.587574,71.237991,53.353992,9.605643,36.105190,49.291355,34.087784,4.478030,31.734268
212,0,-128.585129,157.342865,38.362179,-31.609226,71.217049,53.319000,9.587749,36.101540,49.286911,34.050350,4.506866,31.741232
213,0,-128.541794,157.294968,38.318264,-31.614546,71.219742,53.286182,9.572201,36.078979,49.303871,34.077000,4.490524,31.756441
214,0,-128.566193,157.276474,38.312946,-31.601686,71.219368,53.344254,9.613957,36.108757,49.313293,34.075817,4.490605,31.750719
215,0,-128.572739,157.281967,38.300030,-31.595770,71.221695,53.344616,9.589689,36.101551,49.300842,34.061092,4.509673,31.760098
216,0,-128.594879,157.245850,38.264946,-31.612080,71.223579,53.356850,9.586159,36.080284,49.322826,34.085720,4.483318,31.749447
217,0,-128.644562,157.239578,38.267830,-31.641756,71.167183,53.337467,9.560768,36.049541,49.312737,34.079441,4.465302,31.735651
218,0,-128.668106,157.175781,38.262131,-31.678766,71.155556,53.354382,9.558407,36.027859,49.324341,34.076057,4.443928,31.771053
219,0,-128.668610,157.175415,38.259254,-31.694357,71.133705,53.380520,9.515476,36.003811,49.325676,34.028015,4.468855,31.766735
220,0,-128.711670,157.142700,38.253437,-31.739332,71.090065,53.388107,9.509044,35.993660,49.343578,34.014256,4.451155,31.764547
221,0,-128.788132,157.167740,38.234482,-31.774797,71.116234,53.401653,9.448831,35.978088,49.321384,34.005642,4.430278,31.764645
222,0,-128.769409,157.099045,38.220577,-31.774044,71.116264,53.420921,9.476954,35.947079,49.334980,34.012035,4.407344,31.767197
223,0,-128.796753,157.109100,38.212803,-31.754549,71.096390,53.442474,9.482549,35.952847,49.333298,34.008156,4.421492,31.747602
224,0,-128.797714,157.104324,38.216248,-31.753899,71.093185,53.439232,9.484046,35.943249,49.345390,34.001583,4.437894,31.759602
225,0,-128.788528,157.062836,38.235050,-31.747099,71.084122,53.457600,9.486065,35.932426,49.366058,33.991302,4.422974,31.752895
226,0,-128.778503,157.048477,38.188004,-31.758574,71.073448,53.435917,9.499403,35.948025,49.360722,34.025112,4.439695,31.757307
227,0,-128.766785,157.050995,38.158676,-31.770542,71.082855,53.453140,9.506881,35.946606,49.369423,34.060253,4.445639,31.780203
228,0,-128.731705,157.003326,38.174847,-31.737473,71.054680,53.454983,9.502629,35.934532,49.390488,34.016041,4.427379,31.761772
229,0,-128.754501,157.014450,38.168007,-31.768948,71.085403,53.451660,9.523635,35.942062,49.387917,34.071205,4.396129,31.777620
230,0,-128.714325,157.016281,38.146545,-31.771612,71.093414,53.458405,9.506271,35.922085,49.368668,34.077297,4.415491,31.778038
231,0,-128.690613,157.018723,38.157589,-31.746798,71.095520,53.439877,9.530319,35.953102,49.401447,34.042789,4.413692,31.792660
232,0,-128.680878,157.064056,38.151630,-31.712860,71.113457,53.453651,9.546477,35.951141,49.393826,34.069607,4.431826,31.789749
233,0,-128.632278,157.066833,38.158806,-31.664576,71.088402,53.443913,9.556295,35.954159,49.391357,34.083500,4.415212,31.781857
234,0,-128.596252,157.076309,38.116928,-31.652491,71.138359,53.429733,9.576256,36.003124,49.372700,34.090488,4.405962,31.771652
235,0,-128.581314,157.120712,38.127659,-31.629269,71.138145,53.427338,9.582984,35.997753,49.378136,34.115765,4.396137,31.794262
236,0,-128.518875,157.110153,38.170929,-31.630445,71.145966,53.445728,9.610674,36.006336,49.386532,34.093628,4.413680,31.787943
237,0,-128.516312,157.110077,38.173168,-31.632021,71.173531,53.430225,9.603186,36.009125,49.380234,34.106583,4.428212,31.799242
238,0,-128.505478,157.107758,38.167664,-31.633326,71.163979,53.441734,9.586966,36.001980,49.392876,34.087250,4.406508,31.790522
239,0,-128.514084,157.147537,38.159355,-31.627010,71.177666,53.417976,9.621591,36.037617,49.378452,34.095016,4.415337,31.785507
240,0,-128.511795,157.155624,38.145924,-31.626102,71.180481,53.418175,9.607575,36.005962,49.390652,34.109833,4.439343,31.795286
241,0,-128.513077,157.143768,38.168392,-31.626158,71.191689,53.406216,9.619184,36.042332,49.373760,34.102966,4.428221,31.788256
242,0,-128.534744,157.158371,38.178352,-31.604610,71.178169,53.416435,9.621818,36.018742,49.387157,34.115219,4.436546,31.800461
243,0,-128.503662,157.169739,38.159573,-31.605877,71.178940,53.414536,9.624540,36.055782,49.362530,34.087074,4.457690,31.766273
244,0,-128.521057,157.148911,38.190701,-31.582567,71.189796,53.411137,9.616381,36.058426,49.354771,34.109364,4.458936,31.768036
245,0,-128.528763,157.162186,38.166492,-31.573433,71.207260,53.402271,9.641384,36.063412,49.353348,34.127571,4.444964,31.799723
246,0,-128.505524,157.191238,38.204372,-31.567898,71.216011,53.413246,9.640571,36.072811,49.369774,34.114185,4.447464,31.783998
247,0,-128.543823,157.182892,38.204163,-31.600510,71.206696,53.429104,9.626122,36.081413,49.359848,34.139027,4.458726,31.808411
248,0,-128.564240,157.194489,38.185932,-31.565182,71.222122,53.414455,9.630541,36.081619,49.345867,34.138626,4.452634,31.805485
249,0,-128.567047,157.197968,38.181923,-31.578854,71.226341,53.412624,9.594585,36.053482,49.308552,34.088158,4.381628,31.784101
250,0,-128.563080,157.184402,38.176411,-31.593449,71.236595,53.395267,9.624981,36.064404,49.345615,34.112095,4.445932,31.777925
251,0,-128.563690,157.173615,38.159233,-31.592268,71.213745,53.400845,9.629310,36.045448,49.347359,34.119663,4.448448,31.787109
252,0,-128.561890,157.131653,38.130531,-31.590458,71.184547,53.385754,9.647559,36.033115,49.359749,34.121605,4.441444,31.786818
253,0,-128.567566,157.159912,38.178177,-31.604439,71.173027,53.399658,9.546772,36.019974,49.302284,34.085499,4.365353,31.798117
254,0,-128.613190,157.139099,38.162319,-31.613115,71.190781,53.399876,9.602638,36.050018,49.352612,34.129139,4.454924,31.766571
255,0,-128.635651,157.133728,38.173611,-31.611341,71.193039,53.399830,9.558702,36.023949,49.286694,34.070587,4.386956,31.772570
256,0,-128.637573,157.131210,38.209042,-31.616726,71.185867,53.427502,9.568178,36.016190,49.304401,34.101997,4.368588,31.794731
257,0,-128.663498,157.135193,38.206852,-31.615139,71.154755,53.424767,9.576193,36.012154,49.318001,34.090893,4.376553,31.799767
258,0,-128.683731,157.159576,38.211861,-31.609371,71.184204,53.435768,9.588926,36.007198,49.314785,34.089111,4.368566,31.793230
259,0,-128.661636,157.132462,38.219364,-31.610910,71.186287,53.428360,9.563611,36.024529,49.294441,34.085705,4.381041,31.776913
260,0,-128.665649,157.148880,38.236538,-31.611704,71.190208,53.432213,9.659191,36.040741,49.360714,34.113182,4.443347,31.780563
261,0,-128.664505,157.152802,38.284264,-31.609644,71.172905,53.444942,9.651174,36.040485,49.355370,34.117775,4.448718,31.784710
262,0,-128.686905,157.152710,38.275436,-31.598450,71.180687,53.436237,9.581138,36.021439,49.319706,34.107941,4.387194,31.808735
263,0,-128.708450,157.188065,38.300880,-31.611927,71.182663,53.438957,9.551147,36.022865,49.285896,34.084328,4.385809,31.783480
264,0,-128.723175,157.199310,38.286652,-31.619822,71.191559,53.422260,9.639565,36.060081,49.329353,34.105591,4.462324,31.756472
265,0,-128.719498,157.176254,38.286079,-31.623907,71.179153,53.437431,9.567307,36.038731,49.295506,34.082523,4.396308,31.785433
266,0,-128.745621,157.197586,38.305916,-31.611547,71.181152,53.435505,9.615855,36.062450,49.323830,34.107155,4.465600,31.771461
267,0,-128.728806,157.170700,38.326611,-31.619740,71.164719,53.436428,9.561781,36.049622,49.282887,34.080460,4.394300,31.787045
268,0,-128.763992,157.211533,38.340649,-31.614754,71.180267,53.440842,9.538989,36.049782,49.289387,34.059628,4.428936,31.775505
269,0,-128.789200,157.170578,38.302273,-31.616867,71.156105,53.419670,9.566431,36.066784,49.310795,34.048882,4.492722,31.773954
270,0,-128.761917,157.215775,38.320869,-31.630915,71.162704,53.416988,9.559849,36.045784,49.291401,34.060268,4.411151,31.779806
271,0,-128.789200,157.217102,38.339317,-31.643023,71.189743,53.402462,9.612526,36.076092,49.308376,34.083187,4.526927,31.765938
272,0,-128.779648,157.211624,38.322105,-31.640408,71.170158,53.405766,9.590120,36.091614,49.315334,34.055939,4.519428,31.747408
273,0,-128.801331,157.220703,38.355785,-31.630445,71.161278,53.421124,9.562964,36.077248,49.325081,34.056000,4.531975,31.750154
274,0,-128.792252,157.224289,38.354454,-31.659670,71.165878,53.411133,9.577921,36.073586,49.313969,34.059254,4.529588,31.758755
275,0,-128.808380,157.179550,38.341599,-31.655581,71.156189,53.402420,9.518667,36.046429,49.279713,34.052361,4.422943,31.807224
276,0,-128.813095,157.203690,38.299770,-31.645798,71.172760,53.421459,9.523568,36.045563,49.260540,34.028011,4.439092,31.778973
277,0,-128.812180,157.192154,38.326077,-31.654984,71.172668,53.409237,9.578280,36.074238,49.310432,34.074276,4.522859,31.753115
278,0,-128.806808,157.172852,38.326813,-31.616148,71.145485,53.404293,9.586493,36.072536,49.309586,34.100769,4.496406,31.760149
279,0,-128.803391,157.148697,38.309315,-31.636198,71.158150,53.421173,9.582514,36.079514,49.291489,34.081562,4.519551,31.758980
280,0,-128.815979,157.175781,38.281471,-31.634941,71.149147,53.405552,9.542157,36.057011,49.276142,34.077335,4.436707,31.773544
281,0,-128.814117,157.181534,38.306370,-31.649069,71.168747,53.398216,9.552611,36.060112,49.262955,34.070087,4.440763,31.776897
282,0,-128.835754,157.186325,38.313061,-31.646048,71.154259,53.418186,9.584099,36.085968,49.312580,34.117153,4.517025,31.765982
283,0,-128.810898,157.201202,38.312717,-31.651005,71.154366,53.389359,9.581094,36.071136,49.305717,34.110893,4.513729,31.767427
284,0,-128.821320,157.197510,38.309921,-31.637400,71.157898,53.393688,9.615697,36.077114,49.301941,34.109028,4.501648,31.751774
285,0,-128.802261,157.209091,38.287949,-31.644661,71.177391,53.385551,9.532839,36.084255,49.278473,34.074142,4.442441,31.769018
286,0,-128.825562,157.229675,38.269691,-31.664528,71.185455,53.377735,9.542856,36.077740,49.263157,34.061676,4.449146,31.774036
287,0,-128.813370,157.199219,38.249985,-31.653788,71.181145,53.381542,9.567237,36.099506,49.292011,34.096073,4.507493,31.744637
288,0,-128.811234,157.182770,38.230934,-31.675518,71.170433,53.379116,9.558222,36.089264,49.282970,34.099903,4.506157,31.752954
289,0,-128.791168,157.202759,38.236588,-31.673557,71.170074,53.365334,9.523281,36.071293,49.273170,34.054115,4.426160,31.752062
290,0,-128.803268,157.219208,38.223824,-31.678595,71.171814,53.363312,9.562840,36.089813,49.280483,34.074444,4.503233,31.746578
291,0,-128.766266,157.218399,38.198540,-31.681408,71.171707,53.360085,9.573480,36.086926,49.289738,34.072575,4.535112,31.747219
292,0,-128.758209,157.246857,38.199368,-31.627945,71.185890,53.366344,9.586237,36.102760,49.295383,34.082676,4.504295,31.749599
293,0,-128.754501,157.243225,38.183865,-31.596903,71.194931,53.375931,9.579136,36.122219,49.266182,34.102726,4.495495,31.742912
294,0,-128.736420,157.228439,38.186802,-31.604986,71.201523,53.368534,9.640659,36.114292,49.282063,34.142952,4.503343,31.761013
295,0,-128.728287,157.236237,38.098801,-31.627209,71.233124,53.328739,9.585256,36.092270,49.257797,34.084412,4.464314,31.778820
296,0,-128.726761,157.230179,38.096588,-31.613466,71.218674,53.339252,9.610247,36.123077,49.284042,34.127712,4.512108,31.779020
297,0,-128.691528,157.223007,38.069370,-31.628105,71.229530,53.315540,9.611874,36.092358,49.258957,34.081669,4.449947,31.778790
298,0,-128.692322,157.193497,38.022583,-31.610247,71.220551,53.307804,9.628464,36.127171,49.286087,34.130695,4.470752,31.765789
299,0,-128.678589,157.200623,38.010422,-31.631353,71.206467,53.278515,9.634359,36.130196,49.277683,34.101383,4.479687,31.753380
300,0,-128.665649,157.200958,37.999874,-31.607010,71.198242,53.286655,9.648944,36.122414,49.288124,34.122570,4.481742,31.751328
301,0,-128.678925,157.236343,38.001461,-31.617638,71.227776,53.298672,9.590221,36.097946,49.252712,34.091221,4.398050,31.780415
302,0,-128.652206,157.254288,38.007736,-31.609379,71.233910,53.297054,9.601029,36.098724,49.250252,34.070885,4.407897,31.789881
303,0,-128.643265,157.263550,37.991291,-31.597071,71.258690,53.286674,9.633533,36.122799,49.278835,34.123940,4.506921,31.762318
304,0,-128.646896,157.294174,37.948902,-31.599943,71.275650,53.292267,9.626729,36.123135,49.262447,34.128841,4.530068,31.758581
305,0,-128.600677,157.300995,37.929081,-31.612400,71.293098,53.273235,9.635187,36.167210,49.264473,34.108429,4.549336,31.743570
306,0,-128.612961,157.321609,37.883595,-31.592808,71.307289,53.224789,9.633945,36.187984,49.233334,34.096458,4.559466,31.748447
307,0,-128.607300,157.326233,37.858303,-31.603317,71.314888,53.221497,9.598920,36.170383,49.225853,34.096989,4.560313,31.756647
308,0,-128.613708,157.326233,37.850750,-31.641893,71.312393,53.224171,9.551444,36.146706,49.201023,34.051086,4.486694,31.779020
309,0,-128.602478,157.283905,37.817974,-31.603384,71.316910,53.211811,9.545087,36.143871,49.206841,34.067253,4.476633,31.755674
310,0,-128.605682,157.259613,37.805943,-31.645466,71.303970,53.184467,9.583077,36.186684,49.225105,34.072212,4.581356,31.748854
311,0,-128.651794,157.258621,37.761330,-31.635996,71.286812,53.186584,9.584567,36.184696,49.229107,34.100906,4.552793,31.740685
312,0,-128.642792,157.235580,37.762917,-31.670231,71.292229,53.180771,9.525852,36.152122,49.194588,34.066135,4.479045,31.754728
313,0,-128.637497,157.221924,37.774940,-31.659540,71.282982,53.189312,9.588142,36.181347,49.236198,34.108913,4.549767,31.758574
314,0,-128.668549,157.236923,37.763206,-31.669226,71.289574,53.204689,9.578970,36.184395,49.229382,34.095844,4.572187,31.739145
315,0,-128.669235,157.250610,37.768135,-31.639681,71.310532,53.230648,9.614176,36.173538,49.229851,34.104813,4.574793,31.743984
316,0,-128.677658,157.242447,37.728733,-31.631102,71.313385,53.231026,9.634996,36.170124,49.232609,34.106503,4.561115,31.755100
317,0,-128.686691,157.241959,37.733715,-31.633354,71.321068,53.216885,9.643401,36.188190,49.237473,34.096458,4.576025,31.739599
318,0,-128.677841,157.229538,37.726368,-31.632517,71.318336,53.215137,9.646954,36.189064,49.237011,34.100437,4.582294,31.738262
319,0,-128.712646,157.261963,37.712563,-31.635746,71.314705,53.199112,9.642923,36.198570,49.224403,34.106544,4.570716,31.740665
320,0,-128.696655,157.246979,37.693432,-31.632618,71.318558,53.197403,9.572921,36.149769,49.199951,34.093590,4.512056,31.771093
321,0,-128.688492,157.241241,37.702229,-31.646080,71.286377,53.192944,9.605362,36.169331,49.229832,34.101944,4.571673,31.746309
322,0,-128.703949,157.243607,37.699505,-31.639870,71.297234,53.202198,9.616858,36.174053,49.227180,34.103363,4.560659,31.756151
323,0,-128.703049,157.214417,37.697861,-31.648722,71.279556,53.171974,9.541796,36.156696,49.172203,34.078831,4.504822,31.754225
324,0,-128.735397,157.204453,37.735645,-31.691082,71.288681,53.178539,9.522202,36.152809,49.188869,34.057270,4.494743,31.738997
325,0,-128.753586,157.203217,37.721806,-31.699720,71.288361,53.176746,9.521481,36.155846,49.177795,34.048172,4.499881,31.748932
326,0,-128.767120,157.222672,37.748154,-31.676065,71.280281,53.182911,9.567209,36.163029,49.233376,34.085148,4.559196,31.731300
327,0,-128.778275,157.235153,37.777458,-31.690453,71.282715,53.179787,9.572736,36.186390,49.223305,34.066643,4.551458,31.747931
328,0,-128.778580,157.222000,37.815678,-31.688213,71.283127,53.203075,9.577158,36.169132,49.209225,34.044991,4.569688,31.723539
329,0,-128.816193,157.243393,37.836533,-31.686029,71.292274,53.194199,9.544201,36.190475,49.229954,34.048794,4.559395,31.734657
330,0,-128.807831,157.238098,37.861420,-31.690802,71.292686,53.233608,9.494010,36.174286,49.186451,34.026913,4.481944,31.765614
331,0,-128.811417,157.254837,37.885239,-31.687983,71.292160,53.239429,9.536422,36.183620,49.234745,34.046181,4.562150,31.759016
332,0,-128.787842,157.261765,37.923424,-31.696968,71.295250,53.233803,9.523119,36.166588,49.227039,34.033237,4.577641,31.744890
333,0,-128.828278,157.303131,37.916004,-31.673313,71.288910,53.243629,9.529289,36.177765,49.231285,34.032269,4.552166,31.746759
334,0,-128.796799,157.328903,37.952820,-31.683884,71.272163,53.253487,9.527769,36.163277,49.244202,34.027527,4.554932,31.720200
335,0,-128.776093,157.306885,37.979919,-31.694565,71.267494,53.255074,9.517086,36.176483,49.250168,34.029091,4.561570,31.733404
336,0,-128.782959,157.313232,37.987640,-31.697468,71.274635,53.238144,9.501987,36.162994,49.244774,34.058281,4.535836,31.748131
337,0,-128.782715,157.311569,38.000729,-31.715666,71.254692,53.243713,9.529264,36.157906,49.248577,34.035576,4.545355,31.729546
338,0,-128.772842,157.301865,38.003918,-31.737402,71.274010,53.249966,9.528193,36.174694,49.231525,34.027603,4.545477,31.745949
339,0,-128.747040,157.320480,38.044174,-31.722338,71.277298,53.250053,9.506498,36.139557,49.226376,34.007710,4.540634,31.735846
340,0,-128.801010,157.341415,38.056164,-31.724926,71.231209,53.255451,9.442612,36.109318,49.208267,34.000210,4.464312,31.782511
341,0,-128.802429,157.327301,38.087528,-31.746141,71.256935,53.279884,9.515157,36.116169,49.258110,34.012417,4.530815,31.778929
342,0,-128.789642,157.326614,38.098442,-31.729609,71.257416,53.283920,9.499466,36.119373,49.250259,34.025227,4.538527,31.763676
343,0,-128.790253,157.334030,38.149277,-31.730816,71.256508,53.303345,9.508321,36.160748,49.226292,34.025581,4.559900,31.750027
344,0,-128.772812,157.371597,38.174061,-31.753819,71.261848,53.298145,9.522572,36.144257,49.258472,34.040771,4.543896,31.764444
345,0,-128.748322,157.346191,38.195309,-31.709948,71.209068,53.323177,9.523798,36.133400,49.267097,34.049210,4.531114,31.767275
346,0,-128.740982,157.358383,38.223030,-31.717499,71.232201,53.326042,9.521839,36.136978,49.264023,34.043831,4.540037,31.763271
347,0,-128.770218,157.372116,38.258308,-31.713228,71.244080,53.346558,9.474692,36.100986,49.237659,34.011757,4.458845,31.764936
348,0,-128.754059,157.382523,38.271408,-31.695585,71.251106,53.357079,9.491835,36.155083,49.244926,34.052055,4.551908,31.745083
349,0,-128.736908,157.416748,38.283577,-31.691492,71.243446,53.332340,9.525941,36.115070,49.265804,34.029758,4.546010,31.745308
350,0,-128.702652,157.400757,38.299503,-31.687040,71.243141,53.343857,9.478654,36.114613,49.238113,34.027279,4.453341,31.779591
351,0,-128.723679,157.432800,38.294682,-31.680256,71.240295,53.329720,9.526410,36.115791,49.268917,34.028267,4.551391,31.737015
352,0,-128.705734,157.455826,38.326839,-31.682093,71.247032,53.347916,9.507820,36.141468,49.243122,34.035816,4.549554,31.733219
353,0,-128.701126,157.455566,38.355618,-31.731524,71.270248,53.343884,9.482333,36.128544,49.257450,34.011723,4.535969,31.762463
354,0,-128.700531,157.445496,38.347836,-31.699177,71.242592,53.363453,9.498255,36.118900,49.245247,34.016998,4.532861,31.749252
355,0,-128.711639,157.436050,38.395721,-31.657700,71.202209,53.345348,9.462767,36.087482,49.230751,33.986877,4.471719,31.751324
356,0,-128.744095,157.448196,38.405685,-31.670132,71.205147,53.364586,9.480445,36.105915,49.266552,34.027172,4.540122,31.730186
357,0,-128.726730,157.429062,38.416077,-31.725441,71.229332,53.377586,9.497349,36.101559,49.276588,34.010586,4.525797,31.753332
358,0,-128.783737,157.446976,38.476044,-31.725258,71.224892,53.383759,9.407210,36.086853,49.217926,33.979130,4.458661,31.764542
359,0,-128.800980,157.473923,38.471935,-31.704226,71.201569,53.397533,9.414333,36.076454,49.231651,33.953445,4.447120,31.774223
360,0,-128.798965,157.461685,38.508751,-31.702511,71.199265,53.395386,9.414619,36.080898,49.246113,33.987587,4.427985,31.797819
361,0,-128.772156,157.405640,38.519047,-31.693850,71.186836,53.401569,9.481975,36.078381,49.284939,34.014877,4.524925,31.765829
362,0,-128.826065,157.420959,38.569824,-31.710886,71.191872,53.415943,9.468291,36.092876,49.270493,34.008255,4.530619,31.750702
363,0,-128.828705,157.425812,38.583275,-31.691532,71.163704,53.427151,9.464651,36.087940,49.261696,34.010754,4.529533,31.752810
364,0,-128.823349,157.402771,38.600986,-31.682514,71.138985,53.452579,9.496793,36.081966,49.277069,34.015636,4.531273,31.753696
365,0,-128.830093,157.399384,38.619179,-31.663778,71.145798,53.451771,9.475368,36.074665,49.285778,34.034290,4.520964,31.751272
366,0,-128.813797,157.392090,38.625374,-31.670454,71.143990,53.430664,9.486592,36.079498,49.284027,34.015182,4.528178,31.752512
367,0,-128.852982,157.396515,38.620014,-31.671070,71.139183,53.434902,9.497684,36.055019,49.279289,34.015251,4.532465,31.749964
368,0,-128.841217,157.399460,38.606930,-31.675409,71.147270,53.420845,9.494062,36.055607,49.273994,34.018997,4.522646,31.731956
369,0,-128.867783,157.389755,38.618214,-31.668779,71.135826,53.434757,9.477921,36.084000,49.274132,34.038731,4.522008,31.743805
370,0,-128.842285,157.381653,38.631805,-31.709164,71.133423,53.454655,9.421261,36.047489,49.257107,34.016502,4.431401,31.783632
371,0,-128.869400,157.393448,38.623730,-31.667084,71.140144,53.433010,9.469895,36.072460,49.290676,34.009521,4.536601,31.766333
372,0,-128.849838,157.375641,38.611473,-31.712114,71.143059,53.437603,9.468069,36.077579,49.287731,34.013416,4.527726,31.751852
373,0,-128.865143,157.332733,38.584312,-31.742275,71.153427,53.419399,9.467958,36.085110,49.272980,34.028172,4.524409,31.736248
374,0,-128.869736,157.333878,38.564251,-31.722057,71.153282,53.414860,9.509066,36.070854,49.281013,34.030476,4.524200,31.749201
375,0,-128.890900,157.324631,38.563934,-31.738195,71.133163,53.402122,9.455287,36.071636,49.264767,34.030144,4.512294,31.763796
376,0,-128.883194,157.301804,38.582592,-31.723183,71.137268,53.411896,9.487118,36.077484,49.281124,34.030731,4.499575,31.757940
377,0,-128.870102,157.269516,38.571087,-31.741571,71.135666,53.406258,9.470162,36.056465,49.256840,34.035606,4.501677,31.750648
378,0,-128.876450,157.247391,38.560703,-31.727467,71.075974,53.379360,9.458004,36.058144,49.283249,34.042828,4.502870,31.744625
379,0,-128.885483,157.228775,38.537457,-31.715006,71.083374,53.393127,9.466865,36.054489,49.289371,34.032478,4.516039,31.751503
380,0,-128.856232,157.226791,38.496136,-31.752934,71.110641,53.375950,9.476162,36.036674,49.291344,34.039036,4.483739,31.759235
381,0,-128.864929,157.238632,38.482121,-31.760427,71.112465,53.365486,9.473845,36.061352,49.282398,34.020157,4.506573,31.747627
382,0,-128.892914,157.252365,38.424244,-31.770948,71.115997,53.358555,9.466000,36.041912,49.275166,34.008682,4.455676,31.760763
383,0,-128.868698,157.218704,38.397144,-31.786356,71.124344,53.349487,9.463643,36.046516,49.267853,34.003426,4.487465,31.775675
384,0,-128.845261,157.222778,38.373917,-31.779778,71.135826,53.345749,9.452636,36.047199,49.259716,33.996449,4.490210,31.761717
385,0,-128.851654,157.206070,38.360756,-31.780228,71.137833,53.318233,9.458814,36.038342,49.274136,34.004089,4.515876,31.762983
386,0,-128.889389,157.198517,38.298531,-31.810862,71.133263,53.281269,9.446494,36.047855,49.247921,33.976669,4.508362,31.745989
387,0,-128.883072,157.188782,38.247871,-31.814079,71.134621,53.281078,9.392030,36.069492,49.233059,33.981087,4.502028,31.746759
388,0,-128.886017,157.179153,38.243397,-31.846546,71.142525,53.277107,9.385807,36.034370,49.232986,33.973763,4.430739,31.796268
389,0,-128.886780,157.170914,38.238285,-31.839144,71.137810,53.277573,9.409670,36.054390,49.248875,33.976421,4.501276,31.743326
390,0,-128.905930,157.165497,38.174557,-31.879343,71.133163,53.270405,9.375822,36.068592,49.230427,33.980438,4.483969,31.772152
391,0,-128.906174,157.155609,38.150421,-31.855247,71.118729,53.238865,9.383508,36.067936,49.236660,33.964886,4.501830,31.745020
392,0,-128.893677,157.142944,38.130093,-31.890295,71.124657,53.216354,9.371595,36.060898,49.217850,33.977856,4.518805,31.741713
393,0,-128.918060,157.159027,38.064037,-31.899977,71.136864,53.206913,9.371552,36.078945,49.239197,33.968742,4.514631,31.749542
394,0,-128.939621,157.103714,38.007977,-31.914680,71.148788,53.190197,9.355186,36.073555,49.186150,33.947918,4.523242,31.702805
395,0,-128.950211,157.096329,37.978058,-31.936529,71.122360,53.198574,9.324569,36.077820,49.208923,33.925381,4.525990,31.718586
396,0,-128.995575,157.073593,37.954136,-32.002186,71.072586,53.147865,9.231546,36.018429,49.147160,33.889328,4.452432,31.718227
397,0,-128.961014,157.025208,37.894970,-32.041790,71.073059,53.125587,9.234447,36.050938,49.164661,33.875050,4.517430,31.708252
398,0,-128.986221,157.008087,37.852425,-32.041168,71.049507,53.120003,9.227841,36.019310,49.155354,33.857903,4.502704,31.702307
399,0,-129.035065,157.007935,37.828861,-32.070770,71.031418,53.093193,9.204037,36.010185,49.161949,33.855160,4.498789,31.708679
400,0,-129.019073,157.028046,37.839451,-32.108421,71.055016,53.069748,9.158926,35.986767,49.149067,33.821739,4.484790,31.703148
401,0,-129.011108,157.056015,37.828316,-32.153004,71.064857,53.087124,9.083157,35.999847,49.105305,33.788887,4.411915,31.725683
402,0,-129.028992,157.082260,37.831509,-32.167259,71.078423,53.062286,9.063793,35.993465,49.077530,33.767120,4.419891,31.706606
403,0,-129.033356,157.103851,37.823772,-32.167366,71.088570,53.045639,9.061306,36.022373,49.071709,33.764088,4.436085,31.717339
404,0,-129.022125,157.143372,37.839348,-32.157070,71.089592,53.053986,9.078427,36.030506,49.078671,33.732418,4.540738,31.674009
405,0,-129.006516,157.172516,37.821499,-32.198349,71.095917,53.022980,9.011884,36.010265,49.021519,33.649853,4.470187,31.669426
406,0,-129.015656,157.193024,37.821949,-32.214424,71.089355,52.988811,8.978785,36.046268,49.032234,33.645332,4.532142,31.654253
407,0,-129.047897,157.156235,37.775063,-32.258411,71.098312,52.981060,8.941353,36.035786,49.038624,33.623962,4.528667,31.668898
408,0,-129.051804,157.155029,37.758087,-32.312241,71.087784,52.923878,8.886922,35.995663,48.992908,33.599827,4.407672,31.678785
409,0,-129.023102,157.127274,37.697823,-32.311676,71.089874,52.893272,8.880622,36.006508,48.971279,33.587978,4.392276,31.690899
410,0,-129.018051,157.126862,37.695221,-32.390308,71.060806,52.834511,8.808909,35.992626,48.932144,33.539753,4.436639,31.648859
411,0,-129.080032,157.100662,37.699165,-32.392193,71.041878,52.841743,8.779922,35.957996,48.924229,33.533920,4.389243,31.627022
412,0,-129.045914,157.095062,37.764507,-32.420609,70.964096,52.867126,8.795656,35.929573,48.952358,33.539333,4.366092,31.674717
413,0,-129.123291,157.125809,37.980522,-32.415070,70.943588,52.960461,8.828100,35.902542,48.987801,33.576797,4.369527,31.662203
414,0,-129.147690,157.220764,38.270832,-32.355900,70.850639,53.092937,8.908346,35.844204,49.091869,33.667271,4.342761,31.689999
415,0,-129.226898,157.452301,39.024479,-32.187439,70.774017,53.409084,9.094005,35.737850,49.282688,33.827644,4.234699,31.773970
416,0,-129.202179,157.733017,40.151711,-31.796816,70.597748,54.029255,9.476487,35.527390,49.620506,34.104641,4.049098,31.879332
417,0,-129.288712,158.232162,41.887306,-31.309910,70.332611,55.108353,9.913424,35.228985,50.125675,34.360332,3.784274,31.968336
418,0,-129.166840,158.958267,44.289505,-30.407576,70.036781,56.646034,10.524705,34.675323,50.888756,34.638332,3.396983,32.133018
419,0,-128.851761,159.907639,47.279972,-29.157999,69.848427,58.856873,11.523783,34.091084,51.880440,35.048134,2.994930,32.388397
420,0,-128.017349,161.048340,50.679497,-27.361265,69.687714,61.629288,12.596945,33.588955,52.912403,35.438141,2.498054,32.591194
421,0,-126.709282,162.387100,54.397205,-24.867081,69.902580,65.429169,14.297605,33.016857,54.570839,35.947868,2.134343,32.801476
422,0,-124.661591,163.751633,58.433914,-21.788458,70.654358,70.317535,16.365746,32.769402,56.864491,36.240189,1.968347,33.163071
423,0,-122.110718,165.191422,62.592030,-18.386724,71.902557,75.713882,18.716900,32.584560,59.679588,36.577938,2.384261,33.518364
424,0,-119.150223,166.603378,67.170456,-14.391282,73.622208,81.749771,21.512978,32.769238,63.117104,37.149036,3.661839,34.051910
425,0,-115.617073,167.974777,71.829506,-9.918724,75.449936,88.475067,25.021574,33.716022,67.651352,38.337067,5.685451,36.314526
426,0,-111.994545,169.426987,76.592720,-5.513865,77.467468,95.647713,29.324848,35.688564,73.711716,42.070686,8.244475,41.619392
427,0,-108.107536,170.801544,81.797348,-1.230370,79.729607,103.148026,34.763653,38.171062,82.066261,47.914463,10.978027,49.991341
428,0,-103.934059,172.373947,86.924896,2.751659,82.093445,110.836220,40.093735,41.422405,91.481133,55.200329,13.436567,60.814083
429,0,-99.059746,173.572998,91.925987,7.012433,84.383827,118.896164,45.692333,44.668755,101.992630,62.460918,16.248018,72.622238
430,0,-94.102081,175.083588,96.895180,11.141506,87.184128,126.332375,51.191601,47.964592,112.360321,69.681061,18.904514,84.599335
431,0,-88.449844,176.747345,101.671989,16.014307,90.006531,133.994217,56.731560,51.180473,122.268967,76.538483,21.582861,95.840462
432,0,-82.530502,178.456039,106.738060,21.664997,93.135765,141.512085,62.580532,54.238205,131.436935,83.008537,24.158981,105.982460
433,0,-75.831795,180.063522,111.634048,27.917082,96.345131,148.761292,68.781845,57.268459,139.759308,89.481827,26.802250,114.927528
434,0,-68.473183,181.913727,116.111649,34.880718,99.743996,155.328323,75.506500,60.237774,147.201950,96.363197,29.503603,122.711823
435,0,-60.747490,184.264435,120.364807,42.475311,103.051964,161.261856,82.856125,63.202789,153.642212,103.708389,32.267883,129.336258
436,0,-52.665813,185.335144,124.420296,50.751537,106.284546,166.406143,91.082993,66.281487,159.138153,111.918549,35.212112,134.934006
437,0,-44.342274,186.969406,128.545288,59.522800,109.235649,170.755127,100.130409,69.445190,163.566818,121.400414,38.551502,139.472015
438,0,-36.087322,188.386612,132.615585,68.741631,111.712730,174.290329,110.114433,72.677864,166.989075,131.869492,42.317085,142.762161
439,0,-27.770136,189.285934,136.567841,78.127098,113.630875,177.219406,120.572151,75.860435,169.476685,143.108017,46.349384,144.951263
440,0,-19.453896,189.746887,140.124832,87.565315,115.158127,179.540680,131.368454,78.951752,171.028214,154.534286,50.548157,146.085693
441,0,-11.599296,190.337860,143.830185,97.069740,116.254456,181.401489,142.052689,81.783310,171.815933,166.064468,54.772896,146.290207
442,0,-3.786123,190.629593,147.256805,106.486206,117.141060,182.782516,152.575150,84.379547,171.949738,177.179443,58.904587,145.601791
443,0,3.971620,190.664169,150.273041,115.837212,117.964340,183.733688,162.694992,86.759178,171.676147,187.805344,62.874393,144.418488
444,0,11.816074,190.738693,152.835022,125.002220,118.845947,184.292557,172.521851,89.054710,171.051544,198.209122,66.662109,142.830505
445,0,19.548298,190.958374,154.756287,134.065079,119.873116,184.464035,182.142380,91.218628,170.193314,207.972855,70.112549,141.107208
446,0,27.464884,191.258865,156.479553,143.019470,121.087585,184.216553,191.262909,93.367470,169.154663,217.492722,73.182472,139.596222
447,0,35.511223,191.629654,157.796478,151.808502,122.477867,183.617462,200.552567,95.498184,167.896393,226.602386,75.865234,138.019485
448,0,43.371391,192.219269,158.831772,160.492050,123.909416,182.771744,209.262299,97.491364,166.380173,235.273605,78.308884,136.194855
449,0,50.841312,192.996643,159.738022,168.912155,125.243980,181.658707,217.722565,99.359131,164.576324,243.479752,80.588242,134.117447
450,0,58.357456,193.809509,160.074188,177.160522,126.526711,180.261627,225.841904,101.159149,162.461090,251.419724,82.739906,131.628693
451,0,65.162186,194.565002,160.613190,184.859146,127.664330,178.745407,233.527939,102.831001,160.034622,258.786285,84.845879,128.753815
452,0,71.842865,195.048904,160.745026,192.299210,128.781342,177.053177,240.830643,104.295197,157.494476,265.616241,86.836525,125.494736
453,0,78.255936,195.407501,160.504440,199.230652,129.681305,175.259613,247.709946,105.522636,154.878067,272.125458,88.666809,122.319885
454,0,84.186600,195.718140,160.173218,205.826645,130.488403,173.384674,254.215057,106.690483,152.283630,278.336426,90.516129,119.139183
455,0,89.934692,195.827530,159.578461,212.090897,131.246964,171.523041,260.464874,107.811172,149.776306,284.350281,92.041496,116.297485
456,0,95.466454,195.889038,158.883514,218.159729,131.960648,169.506561,266.488647,108.903267,147.408356,290.272583,93.511299,113.616943
457,0,100.739265,195.861282,158.015640,223.928284,132.600754,167.561127,272.302948,110.013229,144.996841,296.054291,94.984520,111.091316
458,0,105.735680,195.918365,157.132492,229.350479,133.156769,165.553879,277.842896,111.108109,142.706421,301.461365,96.308128,108.594017
459,0,110.502098,196.015213,156.089340,234.494919,133.699600,163.594101,283.031799,112.040970,140.405777,306.616974,97.423424,106.184631
460,0,114.975716,196.084244,154.987442,239.393127,134.182678,161.605377,287.955688,112.727005,138.135681,311.298645,98.253967,103.748253
461,0,119.467728,196.153687,153.886536,244.132401,134.587601,159.751953,292.495453,113.224693,135.974365,315.653168,98.716980,101.438103
462,0,123.690384,196.185944,152.725998,248.496841,134.888168,157.990417,296.723083,113.498215,133.858398,319.713013,98.918282,99.234787
463,0,127.541214,196.128540,151.566116,252.614227,135.127380,156.413101,300.707489,113.592514,131.995987,323.384888,98.977524,97.201088
464,0,131.272202,195.996414,150.350159,256.414612,135.172668,154.985794,304.340698,113.538757,130.265305,326.855133,98.853874,95.421989
465,0,134.626282,195.685822,149.119705,259.820160,135.020081,153.605835,307.793213,113.415878,128.832870,330.184998,98.667160,93.879028
466,0,137.669174,195.327301,147.885193,262.967072,134.681519,152.322220,310.944458,113.137749,127.548470,333.289642,98.362099,92.581505
467,0,140.646225,194.983307,146.706818,265.836304,134.367798,151.089310,313.854034,112.735832,126.423943,336.181152,97.906609,91.385406
468,0,143.448166,194.545181,145.476913,268.557678,133.912720,149.973648,316.557526,112.187065,125.378128,338.835022,97.241379,90.403206
469,0,146.092728,194.202652,144.228867,271.215820,133.505585,148.913879,319.303070,111.539345,124.403236,341.339783,96.409828,89.300095
470,0,148.766724,193.860779,143.120926,273.795563,133.046783,147.723709,321.625854,110.825348,123.231934,343.691956,95.448120,88.191086
471,0,151.350998,193.572922,141.937210,276.349792,132.628647,146.458115,323.958191,110.116272,122.033478,345.997437,94.495422,87.067352
472,0,153.886841,193.337875,140.776474,278.762512,132.246735,145.051041,326.307861,109.526863,120.664780,348.209381,93.573387,85.766655
473,0,156.175491,193.091415,139.546036,281.139618,131.812790,143.535126,328.646606,108.976868,119.163620,350.355194,92.769524,84.269058
474,0,158.474060,192.784317,138.350800,283.486053,131.363846,141.899658,330.741455,108.424774,117.427994,352.388123,92.092140,82.512497
475,0,160.535278,192.365784,137.239594,285.642181,130.821274,140.201263,332.806763,107.930321,115.550957,354.333893,91.526711,80.624008
476,0,162.461166,191.887650,136.050323,287.581970,130.185303,138.421921,334.736176,107.465439,113.465736,356.156067,91.098015,78.538521
477,0,164.135422,191.400681,134.814941,289.408966,129.413834,136.559967,336.534180,106.902542,111.382591,357.719696,90.671700,76.228561
478,0,165.832108,190.934006,133.601654,291.092072,128.691788,134.744415,338.018616,106.240173,109.244873,359.121948,90.128250,73.924805
479,0,167.250183,190.517136,132.343948,292.526184,127.994209,132.871246,339.293091,105.533783,107.114464,360.148865,89.423775,71.625923
480,0,168.600784,190.093719,131.095749,293.913147,127.315102,131.086777,340.505585,104.793106,104.974716,360.993286,88.722893,69.296692
481,0,169.893921,189.746338,129.741959,295.047791,126.681152,129.351212,341.382843,104.077965,102.884125,361.675598,88.095184,67.018768
482,0,170.937149,189.485931,128.452774,296.069763,126.044365,127.801094,342.215424,103.420616,100.919724,362.172516,87.436424,64.898643
483,0,171.908432,189.269867,127.060425,296.825775,125.426140,126.299980,342.845917,102.715553,99.052589,362.477264,86.772133,62.835007
484,0,172.713608,189.045624,125.673843,297.361664,124.822510,124.865089,343.278625,101.967018,97.432922,362.507751,86.004166,60.982807
485,0,173.497406,188.911484,124.283592,297.810211,124.308441,123.512421,343.406708,101.132339,95.903160,362.326599,85.140594,59.182785
486,0,174.110962,188.818497,122.837120,298.166565,123.844444,122.261833,343.402252,100.316185,94.355385,361.887390,84.195389,57.491119
487,0,174.689865,188.692642,121.389023,298.364258,123.435997,121.029900,343.388611,99.552620,92.979706,361.432831,83.344276,55.759514
488,0,175.146973,188.668030,119.988983,298.573181,123.127655,119.892807,343.252441,98.918816,91.449509,360.769562,82.698334,53.982021
489,0,175.421570,188.625778,118.576416,298.749664,122.894249,118.699821,343.064606,98.453751,89.848427,360.158386,82.358139,52.019394
490,0,175.735565,188.535706,117.104874,298.809265,122.614975,117.402382,343.070923,98.191101,88.229004,359.639557,82.373695,49.906750
491,0,175.904816,188.592285,115.634224,298.837036,122.285164,116.004669,342.972565,97.970642,86.380486,358.922638,82.440857,47.508404
492,0,176.271042,188.589722,114.175636,298.748596,121.936211,114.533501,342.996979,97.775414,84.485832,358.154510,82.406113,45.109516
493,0,176.548096,188.632111,112.704506,298.739624,121.737831,113.165802,342.729401,97.381165,82.734123,357.263885,81.983673,42.854435
494,0,176.818298,188.811035,111.230133,298.612701,121.608505,111.802681,342.359070,96.901215,81.631866,357.316528,81.468330,41.936050
495,0,177.116837,189.053772,109.882065,298.396362,121.599670,110.702583,342.248596,96.798035,81.083969,357.621185,80.898857,41.698483
496,0,177.302856,189.334854,108.602242,298.162872,121.755005,109.809975,342.155609,96.727455,80.920639,357.755676,80.210892,41.778332
497,0,177.497543,189.704300,107.498550,297.933228,122.098053,109.323830,341.780823,96.509735,80.867317,357.435608,79.705856,41.858635
498,0,177.471649,190.182068,106.728394,297.639771,122.483559,109.047310,341.332642,96.482590,81.052528,357.184052,79.385551,42.138477
499,0,177.377106,190.562897,106.198952,297.303131,122.859818,109.068192,340.738800,96.494240,81.116524,356.712219,79.289688,42.357895
500,0,177.089981,190.922745,105.943092,296.856110,123.099464,109.262756,340.217316,96.540314,81.278488,356.233124,79.526466,42.442879
501,0,176.760803,191.208008,105.941200,296.416595,123.324051,109.565948,339.711823,96.651711,81.466797,355.645599,79.837570,42.524540
502,0,176.316666,191.413223,106.084763,295.873016,123.527481,110.068970,339.056305,96.773849,81.957275,355.102051,79.919044,43.214756
503,0,175.725220,191.639175,106.462395,295.088196,123.778542,110.823334,338.217316,96.805374,82.887451,354.333130,79.962242,44.212345
504,0,174.747147,191.976196,107.149429,294.002197,124.039207,112.042305,336.976501,96.903336,83.975494,353.408356,80.166534,45.598202
505,0,173.474167,192.381577,108.085922,292.641754,124.401703,113.615417,335.764709,97.321693,85.750626,352.424774,80.456398,47.693428
506,0,171.963440,192.872772,109.259430,291.031342,124.881599,115.675667,334.273315,97.689812,88.029732,351.033905,80.700104,50.220741
507,0,170.124115,193.514847,110.782120,289.052277,125.494507,118.154686,332.161499,97.971436,90.733047,348.967712,81.098320,52.783985
508,0,167.960541,194.495560,112.619743,286.741089,126.329201,121.209358,329.768616,98.434830,93.568123,346.450470,81.852280,55.516075
509,0,165.323822,195.645493,114.599121,284.056274,127.217590,124.468925,327.144379,99.272682,96.967773,343.784210,82.314636,59.145878
510,0,162.317322,196.948639,116.664131,280.652771,128.246063,127.920525,323.834686,99.806351,101.070312,340.575531,82.537285,63.391552
511,0,158.956650,198.387375,118.801834,276.874756,129.401917,131.653809,320.099274,100.466858,105.447800,337.149139,83.169342,67.811546
512,0,155.328430,200.031387,121.044060,272.736053,130.713928,135.517914,316.237488,101.504379,110.058784,333.285187,83.899086,72.339531
513,0,151.464874,201.783401,123.360405,268.559479,132.152679,139.417984,312.070618,102.588234,114.582161,329.223969,84.710129,76.899254
514,0,147.428711,203.718369,125.748169,264.112488,133.659546,143.267761,307.680847,103.700195,118.899437,324.895905,85.594322,81.334274
515,0,143.282043,205.626587,128.181824,259.666199,135.249237,147.068283,303.138641,104.911369,123.106140,320.511719,86.705223,85.528862
516,0,138.911636,207.496811,130.619064,254.855667,136.770752,150.712875,298.563721,106.302437,127.184975,316.155701,88.044128,89.697258
517,0,134.282990,209.339798,133.161774,250.020020,138.291183,154.231140,293.858582,107.789978,130.996964,311.522034,89.505295,93.520554
518,0,129.508835,211.083099,135.560852,244.949310,139.657013,157.759628,288.755707,109.218605,134.575104,306.712952,91.029320,97.258881
519,0,124.461716,212.909012,137.806931,239.535736,140.974640,161.063141,283.417511,110.627892,138.207962,301.484711,92.487511,100.838829
520,0,118.975784,214.780594,139.882050,233.738327,142.540298,164.169540,277.667023,111.986320,141.548157,296.025818,93.761276,104.413559
521,0,113.333206,216.740082,141.727310,227.691055,144.423386,167.074890,271.657135,113.391106,144.793961,290.103119,94.949249,107.820885
522,0,107.561584,218.835297,143.336548,221.462555,146.171570,169.583694,265.378754,114.874016,147.693466,283.837006,96.082687,110.857590
523,0,101.673798,220.827347,144.347885,214.952438,147.900818,171.741837,258.939148,116.381721,150.225906,277.357971,97.187614,113.522240
524,0,95.320656,223.185959,145.583405,208.428940,149.616745,173.466705,252.293945,117.773979,152.241074,270.726410,98.299973,115.639862
525,0,89.053261,225.401901,146.305023,201.791992,151.188293,174.738678,245.525879,119.143280,153.657211,263.925293,99.486214,117.086494
526,0,82.913826,227.473801,146.484650,194.821533,152.823502,175.590881,238.775177,120.483971,154.501404,257.018280,100.581451,117.950989
527,0,76.380630,229.729202,146.898682,188.175201,154.200378,175.774368,231.878632,121.723106,154.681061,250.174759,101.802155,118.121780
528,0,70.194794,231.634689,146.656403,181.600067,155.582123,175.615509,225.066559,122.859589,154.379211,243.217911,102.985764,117.650826
529,0,63.886627,233.687180,146.395355,175.053635,156.913300,174.972641,218.402786,124.077744,153.657501,236.403275,104.214050,116.797272
530,0,57.747513,235.693054,145.830765,168.575302,158.265762,173.971329,211.848373,125.293449,152.460403,229.685349,105.490005,115.533279
531,0,51.720722,237.445007,144.894897,162.406693,159.606522,172.619308,205.218750,126.423866,150.892120,223.266922,106.927429,113.850220
532,0,45.887894,239.282089,143.862778,156.328888,160.989456,170.930115,199.073776,127.799049,149.088715,217.054688,108.402702,111.755768
533,0,40.193871,240.983124,142.612656,150.733612,162.354950,168.996201,193.390427,129.158737,146.787781,211.143234,110.008514,109.204460
534,0,34.828487,242.584106,141.552811,145.394318,163.671707,166.745209,188.047729,130.620758,144.147720,205.434586,111.583252,106.308578
535,0,29.768372,244.211914,140.184784,140.414429,164.912888,164.375549,182.747620,131.908966,141.232910,199.979355,113.058281,103.218056
536,0,24.849434,245.747681,138.780396,135.648483,166.198532,161.819839,177.820953,133.294998,138.115112,194.563416,114.589775,99.946175
537,0,20.119623,247.137283,137.343460,131.251205,167.420197,159.307785,172.993683,134.466934,134.967590,189.559326,116.213448,96.523270
538,0,15.629595,248.591415,135.953461,127.143593,168.863556,156.700378,168.713501,135.979568,131.914017,184.981400,117.996506,93.201126
539,0,11.370076,249.939468,134.473480,123.074493,170.234772,154.260895,164.693726,137.561508,128.974411,180.722397,119.838989,90.111488
540,0,7.206542,251.247162,133.106720,119.282112,171.646042,151.933029,160.757278,139.175552,126.268013,176.749023,121.741135,87.252213
541,0,3.333550,252.481705,131.726028,115.705658,173.047867,149.803619,157.142075,140.790054,123.739677,172.998779,123.574715,84.571152
542,0,-0.243564,253.739471,130.328979,112.320511,174.378418,147.759506,153.700943,142.394455,121.450806,169.485855,125.362053,82.115936
543,0,-3.710565,255.002655,129.034805,109.214310,175.928940,145.869568,150.522949,143.953827,119.313133,166.220688,126.992348,79.945457
544,0,-6.783078,256.185455,127.816513,106.366272,177.364822,144.156769,147.638840,145.501663,117.363335,163.237076,128.547974,77.932106
545,0,-9.362173,257.296906,126.419868,103.900185,178.953827,142.577942,144.892685,147.013504,115.642288,160.474060,130.033203,76.218903
546,0,-12.046339,258.549561,125.564140,101.781502,180.537888,141.173523,142.619843,148.641953,114.063354,158.083374,131.538391,74.708260
547,0,-14.413368,259.739197,124.473495,99.778275,182.193146,139.828293,140.614975,150.273346,112.667603,155.973740,133.083755,73.281593
548,0,-16.523483,260.869598,123.559570,98.106728,183.824280,138.643188,138.908310,151.983521,111.407417,154.251007,134.680008,72.120468
549,0,-18.395960,261.889404,122.757599,96.567352,185.307114,137.502884,137.399551,153.640854,110.100220,152.647873,136.259735,70.876396
550,0,-20.422382,262.886108,121.944748,95.243294,186.588959,136.484314,136.079987,155.158676,108.809608,151.304977,137.892410,69.602440
551,0,-22.231859,263.498749,121.285606,93.866570,187.633606,135.483521,134.777725,156.508362,107.631645,149.995712,139.406967,68.312813
552,0,-23.753433,264.079041,120.770401,92.409615,188.492981,134.584625,133.535965,157.678360,106.514938,148.700806,140.784088,67.020485
553,0,-25.347782,264.478577,120.056610,91.005402,189.210846,133.788086,132.157333,158.665726,105.509354,147.347992,141.904266,66.073883
554,0,-27.050779,264.944153,119.680161,89.633446,189.842148,133.080246,130.826508,159.498169,104.758987,146.058212,142.858612,65.288597
555,0,-28.493607,265.460266,119.254166,88.279175,190.408371,132.517258,129.578186,160.114639,104.179375,144.776001,143.527985,64.646194
556,0,-29.681536,265.896698,118.769722,87.154816,190.977081,132.003311,128.323608,160.611130,103.588837,143.560394,143.925491,64.149361
557,0,-30.850840,266.383942,118.268593,86.155098,191.456879,131.435913,127.180161,160.973892,103.040031,142.199188,144.082901,63.580593
558,0,-31.755068,266.928864,117.846260,85.345428,191.870758,130.812805,126.161995,161.232208,102.389236,141.068451,144.099030,62.937019
559,0,-32.468906,267.418488,117.445778,84.622238,192.143463,130.173126,125.277428,161.347458,101.648453,139.977219,144.046112,62.180790
560,0,-32.974072,267.739746,117.069260,84.034660,192.422119,129.454147,124.556320,161.469498,100.763268,138.991623,144.003448,61.354813
561,0,-33.480274,268.047607,116.601929,83.672981,192.618774,128.655273,124.032036,161.538528,99.841370,138.264954,144.062271,60.390953
562,0,-33.811481,268.271545,116.144669,83.444763,192.765198,127.835213,123.635727,161.790237,98.821671,137.802994,144.274170,59.370461
563,0,-34.237358,268.418060,115.752060,83.231461,192.911850,126.949203,123.387314,162.101196,97.625053,137.485046,144.708481,58.190655
564,0,-34.629574,268.472382,115.331284,83.026718,192.954254,125.947968,123.223419,162.507004,96.395416,137.317322,145.331497,56.805607
565,0,-35.052193,268.516785,114.950615,82.881760,193.034058,124.983658,123.370689,162.905197,95.266747,137.210434,145.947525,55.524429
566,0,-35.450344,268.615601,114.596527,82.653999,193.067245,124.033859,123.121674,163.255157,93.885773,136.998032,146.495895,54.178951
567,0,-35.745682,268.716034,114.129089,82.469955,193.146194,123.104889,122.864670,163.571075,92.683136,136.698517,147.036377,52.856091
568,0,-35.967052,268.873230,113.595070,82.176712,193.267166,122.177490,122.665245,163.807266,91.581505,136.509811,147.278351,51.840675
569,0,-36.173721,269.157990,113.017776,81.963867,193.447815,121.313087,122.282234,163.929321,90.602654,135.689178,148.062851,50.276608
570,0,-36.324780,269.427704,112.344101,81.807198,193.626495,120.461021,121.994659,164.016998,89.613365,135.208191,148.120895,49.324085
571,0,-36.483891,269.770508,111.709099,81.635895,193.828751,119.566734,121.639206,164.086304,88.645508,134.723907,148.050552,48.284657
572,0,-36.601433,270.104553,111.012589,81.452423,193.946823,118.613846,121.326820,164.096863,87.679085,134.238174,147.965591,47.285133
573,0,-36.693169,270.407745,110.398674,81.278534,194.105667,117.594818,121.072739,164.189758,86.534492,133.761353,148.096756,46.052628
574,0,-36.866768,270.643921,109.732338,81.346313,194.229385,116.692581,120.865921,164.334808,85.271797,133.321838,148.378479,44.693417
575,0,-36.973797,270.848877,109.046898,81.181198,194.308563,115.560883,120.672005,164.614624,83.936775,132.939697,148.790421,43.155220
576,0,-37.142651,271.051331,108.353783,81.098488,194.475189,114.248260,120.605797,164.871628,82.339218,132.482956,149.313263,41.318611
577,0,-37.241455,271.248260,107.593346,81.108498,194.681610,112.866425,120.557358,165.265640,80.649414,132.220886,149.951248,39.474113
578,0,-37.431808,271.584686,106.780243,81.197388,195.082794,111.657661,120.810196,166.000626,79.369705,132.446075,150.709183,38.185032
579,0,-37.515823,272.127228,106.012253,81.303879,196.209488,111.003700,121.223740,167.077560,78.988930,132.416183,151.214249,37.905155
580,0,-37.697071,273.046906,105.243332,81.286629,197.337769,110.463989,121.092026,167.937012,78.675758,132.122635,151.636536,37.668182
581,0,-37.818413,273.988953,104.625496,81.298592,198.487625,109.984390,121.006027,168.698837,78.356735,131.629501,151.956497,37.359219
582,0,-37.946407,274.907074,104.017448,81.151291,199.549606,109.641853,120.852371,169.593063,78.204002,131.399170,152.440186,37.367146
583,0,-38.326313,275.749023,103.543747,80.946930,200.549103,109.401436,120.616379,170.399628,78.097717,131.010040,152.941788,37.219177
584,0,-38.707878,276.480194,103.074554,80.772736,201.366318,109.108780,120.455986,171.190170,77.873016,130.704971,153.562988,37.072231
585,0,-39.196545,277.045319,102.607262,80.403931,202.149277,108.779549,120.273727,171.940247,77.761116,130.341812,154.060654,36.982609
586,0,-39.637276,277.528351,102.123299,80.025246,202.805649,108.548447,119.978088,172.576080,77.671532,129.953995,154.556229,36.862576
587,0,-40.074642,278.017395,101.679611,79.669991,203.406250,108.251724,119.677971,173.149689,77.471924,129.612442,154.929626,36.697281
588,0,-40.479519,278.424133,101.198059,79.319206,203.961624,107.948227,119.470329,173.664459,77.401642,129.453156,155.227051,36.780834
589,0,-40.867409,278.728027,100.732956,78.879959,204.288452,107.491463,119.197311,174.083130,77.159630,129.404785,155.426941,36.637669
590,0,-41.218834,278.886139,100.328972,78.637314,204.480927,106.922516,118.988708,174.394455,76.526520,129.227676,155.739044,36.116096
591,0,-41.486797,278.994965,99.844345,78.370605,204.502533,106.244141,118.831261,174.655655,75.784576,129.161514,156.027939,35.377758
592,0,-41.698505,278.903473,99.285278,78.110512,204.456131,105.425087,118.704674,174.904388,74.923035,129.200867,156.191925,34.615753
593,0,-41.918941,278.887177,98.810616,78.063919,204.454300,104.761253,118.718231,175.097443,74.114746,129.192017,156.334244,33.921406
594,0,-42.178204,278.915833,98.429764,77.895447,204.580811,104.320053,118.653709,175.273300,73.646942,129.075775,156.304657,33.652050
595,0,-42.451462,278.954254,98.203232,77.674294,204.605545,104.076134,118.388329,175.296814,73.380455,128.891281,156.235245,33.566238
596,0,-42.882343,278.990814,98.178978,77.312241,204.610458,104.085526,117.926659,175.297806,73.270638,128.688339,156.161362,33.647785
597,0,-43.322102,278.873962,98.267212,76.867172,204.508423,104.325058,117.502663,175.290817,73.395699,128.428940,156.137238,33.960262
598,0,-44.024128,278.597870,98.504616,76.355606,204.281769,104.762527,116.785149,175.441849,73.338379,128.222992,156.273560,34.325542
599,0,-44.920727,278.091034,98.997856,75.770493,203.811630,105.426788,116.299789,175.371719,73.668831,128.246735,156.661743,34.783905
600,0,-45.881893,277.270142,99.634941,75.219810,203.208664,106.384773,116.046356,175.145981,74.289627,128.113770,157.207809,35.335953
601,0,-47.022369,276.235596,100.512085,74.631531,202.544037,107.576241,115.603188,174.956009,75.071594,128.033783,157.798935,36.145035
602,0,-48.112358,275.049194,101.422363,73.945427,201.723480,109.130264,115.078949,174.691422,76.188553,128.184509,158.508789,37.380848
603,0,-49.389656,273.765900,102.478516,73.240196,200.915131,110.883240,114.918442,174.593887,78.003639,128.840744,159.132156,39.449383
604,0,-50.613640,272.219910,103.418098,72.332336,200.059769,112.817589,114.728462,174.623703,80.329704,129.984711,159.428299,42.527367
605,0,-52.019024,270.675720,104.503784,71.336563,199.228317,114.937828,114.600586,174.569061,83.369720,131.592056,159.627686,46.470829
606,0,-53.388676,269.099487,105.615898,70.145004,198.388626,117.405304,114.537094,174.537552,86.999046,133.195343,159.548294,51.143242
607,0,-55.155212,267.905487,106.674179,68.858765,197.357330,120.034622,114.351456,174.217133,90.955223,134.824936,158.658768,56.590492
608,0,-56.442616,266.060486,107.855881,67.432541,196.187912,122.960556,113.690483,173.382843,95.182312,135.408112,157.565643,62.104446
609,0,-58.010597,264.352386,108.984528,65.730637,194.766434,125.889954,112.708252,172.024124,99.582191,135.349045,156.117188,67.302231
610,0,-59.506828,262.607971,110.171494,63.938858,193.117462,129.024811,111.250130,170.078873,104.002838,134.709747,153.829941,72.688988
611,0,-61.048618,260.567719,111.256935,61.893978,191.194626,132.206741,109.526062,167.693375,108.409706,133.746750,150.639893,78.174263
612,0,-62.692181,258.357788,112.242760,59.765823,188.907822,135.378250,107.485634,164.874802,112.677902,132.195221,147.416321,83.256950
613,0,-64.338570,255.865540,113.118347,57.369091,186.304840,138.457962,105.271873,161.737991,116.727737,130.380844,143.886246,87.983345
614,0,-66.085114,253.038528,113.919861,54.811642,183.234818,141.344208,102.803009,158.170380,120.637848,128.340866,139.919601,92.561005
615,0,-68.158943,250.320404,114.369911,52.153900,180.002579,143.975784,100.185898,154.372894,124.219940,125.977203,135.659393,96.729095
616,0,-69.985184,247.183411,114.638275,49.342735,176.488037,146.214371,97.453056,150.229568,127.527473,123.428833,131.051682,100.447624
617,0,-71.411201,243.647400,114.744888,46.390285,172.717148,148.060669,94.503586,145.701538,130.385803,120.631599,126.037506,103.802826
618,0,-73.273460,240.245621,114.715553,43.539364,168.682114,149.564545,91.394096,140.845917,132.877686,117.549110,120.436028,106.838318
619,0,-75.071365,236.806656,114.529251,40.600174,164.401230,150.720810,88.167061,135.670166,134.770508,114.168724,114.539192,109.276009
620,0,-76.940369,233.512405,114.142151,37.647324,159.896759,151.407379,84.747627,130.281586,136.115677,110.584068,108.375961,111.062073
621,0,-78.757942,229.688599,113.503380,34.675819,155.280426,151.689743,81.182266,124.537834,136.866043,106.706635,101.982971,112.167603
622,0,-80.664085,225.691757,112.696571,31.748489,150.395676,151.571594,77.706413,118.723015,137.163086,102.799675,95.490616,112.745720
623,0,-82.677322,221.780289,111.798515,28.713810,145.314270,150.924469,74.072197,112.794708,136.917938,98.772346,88.942162,112.708923
624,0,-84.583221,218.272949,110.582863,25.747917,140.279572,150.097946,70.436668,106.847023,136.262833,94.672607,82.377853,112.205490
625,0,-86.789551,215.172180,109.133575,22.731802,135.285416,149.005142,66.800941,100.848778,135.189529,90.546082,75.831551,111.211388
626,0,-88.611397,212.122299,107.528336,19.844027,130.243011,147.630646,63.130379,94.867867,133.812271,86.360992,69.358009,109.807831
627,0,-90.575630,207.561264,105.909477,16.995958,125.258209,146.020447,59.550137,89.014397,132.081345,82.182632,63.006245,107.981247
628,0,-92.226601,203.828964,104.061646,14.323230,120.382332,144.135483,56.155811,83.342888,130.050507,78.183228,56.910118,105.910759
629,0,-94.311531,200.256012,102.384941,11.758814,115.641808,142.009827,52.866184,77.837868,127.708855,74.468040,51.100304,103.467728
630,0,-95.818527,196.583130,100.343460,9.443462,111.067192,139.602982,49.891300,72.574371,125.060501,71.060600,45.497009,100.838593
631,0,-97.119461,192.790558,97.914886,7.401658,106.635643,137.002609,47.252014,67.555519,122.283234,67.786293,40.264256,97.774033
632,0,-98.639702,189.628677,95.990982,5.690835,102.390450,134.241989,44.900196,62.816776,119.220436,64.973442,35.320095,94.575340
633,0,-99.607552,186.339539,93.838905,4.210474,98.395401,131.392395,42.936775,58.437756,115.973770,62.422020,30.695492,91.123711
634,0,-100.651100,183.082199,91.699631,2.945066,94.522728,128.404327,41.340660,54.429081,112.584740,60.496571,26.642416,87.540436
635,0,-101.589668,179.956116,89.666237,2.120647,90.900665,125.414345,40.075844,50.718067,108.997932,58.884724,23.050793,83.583557
636,0,-102.297882,177.130585,87.441193,1.315261,87.464371,122.421806,39.039120,47.374977,105.361633,57.691124,19.874510,79.775627
637,0,-103.216766,174.152176,85.622803,0.538547,84.433327,119.573380,38.077591,44.347610,101.814766,56.496502,16.941683,75.850060
638,0,-104.028488,171.634628,83.687935,-0.352399,81.526733,116.696831,37.123238,41.598667,98.347954,55.226254,14.290087,72.141586
639,0,-104.539696,169.176178,81.783310,-1.220450,79.215462,113.882118,36.064293,38.978321,95.146225,53.861240,11.798168,68.578972
640,0,-105.056297,167.080780,79.902023,-1.728922,77.103767,111.385330,35.258583,36.713902,92.186440,52.671928,9.615229,65.267372
641,0,-105.544128,165.197617,78.117989,-2.284070,75.303703,109.014557,34.553997,34.802551,89.412361,51.764431,7.781764,62.250046
642,0,-106.015503,163.487900,76.326653,-2.538959,73.781815,106.713463,34.159393,33.297089,86.890938,51.152317,6.316931,59.478180
643,0,-106.398338,162.029831,74.749527,-2.711818,72.484764,104.543114,33.936680,32.049133,84.492363,50.703590,5.005193,57.021305
644,0,-106.732658,160.747208,73.153221,-2.835804,71.440544,102.430138,33.865532,31.044989,82.243721,50.494137,3.909236,54.764381
645,0,-107.026909,159.683105,71.837387,-2.979763,70.468773,100.406624,33.716305,30.116518,80.035728,50.232632,3.083200,52.378204
646,0,-107.410889,158.592331,70.681404,-3.011784,69.586769,98.582771,33.718075,29.284403,77.912422,50.116978,2.359048,50.191288
647,0,-107.803383,157.740021,69.599243,-3.313712,69.019608,96.789406,33.717758,28.681934,75.987679,50.141514,1.897522,48.046059
648,0,-108.190086,156.836060,68.549843,-3.182544,68.199860,95.287727,33.750111,28.192213,74.135841,50.092110,1.556658,46.042793
649,0,-108.619148,156.078415,67.629036,-3.547626,67.848450,93.707222,33.730587,27.815382,72.656342,49.941769,1.272724,44.369080
650,0,-108.908081,155.446655,66.642662,-3.603825,67.483383,92.451218,33.665462,27.606901,71.174583,49.844398,1.145751,42.798553
651,0,-109.263649,154.956848,65.639404,-3.695022,67.197556,91.154114,33.677025,27.458258,69.928207,49.889816,0.982898,41.474586
652,0,-109.412987,154.422974,64.589340,-3.649305,67.108780,89.822647,33.537273,27.366619,68.550552,49.948658,0.690732,40.400330
653,0,-109.401726,154.060959,63.511261,-3.643816,67.045052,88.350662,33.661404,27.316710,67.267509,49.942745,0.627784,38.961948
654,0,-109.392250,153.800125,62.402302,-3.632478,67.026138,86.840858,33.742977,27.351339,65.898056,49.965538,0.379964,37.795628
655,0,-109.367615,153.521133,61.294319,-3.677330,67.071121,85.326462,33.871441,27.523333,65.412483,50.362305,0.225663,37.661568
656,0,-109.413399,153.275711,60.292698,-3.801897,67.095512,83.769958,33.968758,27.616735,64.875122,50.886509,0.094950,37.506527
657,0,-109.547752,153.189682,59.262619,-4.076182,67.066025,82.466080,33.506851,28.538670,64.207100,51.251511,-0.070689,37.520512
658,0,-109.858162,153.114151,58.434250,-4.514266,67.182655,81.174240,33.296753,28.928129,63.831024,51.499214,-0.073995,37.585766
659,0,-110.247604,153.116638,57.712543,-5.118432,67.217796,80.079247,32.905399,29.264215,63.433491,51.542126,0.030196,37.621841
660,0,-110.918839,153.205841,57.115608,-5.868777,67.296883,79.151779,32.320473,29.552980,63.017204,51.336914,0.151690,37.664162
661,0,-111.646751,153.321945,56.543484,-6.688540,67.432220,78.371964,31.602316,29.825426,62.672405,50.960098,0.375795,37.656246
662,0,-112.356277,153.550766,56.114609,-7.537677,67.595757,77.653793,30.872515,30.109425,62.341564,50.504375,0.592897,37.657207
663,0,-113.052917,153.776123,55.677593,-8.351248,67.807480,77.037682,30.099926,30.387220,62.026661,49.995079,0.872453,37.624306
664,0,-113.693970,153.980240,55.200142,-9.246826,67.973488,76.335579,29.318768,30.777950,61.605171,49.513138,1.241718,37.534870
665,0,-114.379860,154.227371,54.655014,-10.071955,68.195091,75.575745,28.629635,31.214371,61.167400,48.997566,1.612325,37.415520
666,0,-114.937286,154.388016,54.095345,-10.875997,68.385124,74.765266,28.032562,31.655539,60.795498,48.570660,2.118379,37.280342
667,0,-115.559807,154.593048,53.498299,-11.859023,68.623390,73.932297,27.344799,32.120514,60.302135,47.973736,2.842508,37.060318
668,0,-116.132492,154.757675,52.914425,-12.952485,68.672157,72.966301,26.625082,32.528877,59.885281,47.601696,3.168330,36.999069
669,0,-116.792328,154.835098,52.223068,-13.941998,68.669655,71.926422,25.764206,32.767391,59.498409,47.019878,3.393711,36.920982
670,0,-117.702942,155.263992,51.591881,-14.920881,68.647789,70.997131,24.871052,32.966866,59.022945,46.456150,3.544339,36.798386
671,0,-118.193367,155.184402,50.706604,-15.986634,68.569862,69.948135,24.067907,33.133129,58.593506,45.997417,3.659791,36.698578
672,0,-118.603226,155.123535,49.873272,-16.954824,68.353653,68.908379,23.329247,33.214386,58.182312,45.580261,3.747700,36.571320
673,0,-119.033829,155.019791,49.126526,-17.907003,68.156593,67.899696,22.482771,33.209503,57.758919,45.179886,3.794788,36.417469
674,0,-119.367912,154.823486,48.352360,-18.843248,68.096115,66.991364,21.702984,33.283440,57.337818,44.813011,3.830467,36.336071
675,0,-119.618622,154.695343,47.695507,-19.761831,67.984520,66.149071,21.130438,33.318657,57.077011,44.422779,3.839593,36.307922
676,0,-119.909096,154.650650,47.106361,-20.446217,67.998665,65.453018,20.535229,33.373081,56.878048,43.992233,3.778034,36.274048
677,0,-120.091194,154.755661,46.426426,-20.955418,68.117889,64.872330,19.952131,33.585751,56.610012,43.621841,3.791598,36.295517
678,0,-120.290077,154.874283,45.983578,-21.422361,68.205536,64.434410,19.386238,33.736839,56.398186,42.845249,3.824801,36.123219
679,0,-120.439522,155.050674,45.526249,-21.955027,68.361359,63.950718,18.770597,33.824085,56.153847,42.237663,3.812933,35.979786
680,0,-120.565964,155.232651,45.196789,-22.389854,68.538956,63.532806,18.288204,33.788044,56.039883,41.726509,3.728730,35.897984
681,0,-120.666267,155.392426,44.895756,-22.638454,68.705269,63.183910,17.795004,33.797482,55.846718,41.270031,3.681413,35.821556
682,0,-120.663551,155.582794,44.625896,-22.866762,68.937332,62.877586,17.486082,33.895470,55.690418,40.989059,3.707335,35.751732
683,0,-120.646774,155.726471,44.372532,-22.950695,69.105659,62.632500,17.308516,34.050205,55.534763,40.772850,3.751988,35.651218
684,0,-120.531693,155.853729,44.150665,-23.071503,69.316185,62.388344,17.197308,34.197285,55.377468,40.675583,3.864094,35.604019
685,0,-120.373894,155.966614,43.909645,-23.084724,69.414024,62.157295,17.217207,34.299183,55.249767,40.673962,3.941437,35.539066
686,0,-120.221878,156.049088,43.762203,-23.037674,69.503983,62.037621,17.280048,34.433037,55.166977,40.714973,4.022553,35.525429
687,0,-120.084862,156.098206,43.673637,-22.984402,69.571205,61.987892,17.339212,34.549484,55.124023,40.771538,4.095641,35.487534
688,0,-120.004944,156.153854,43.692127,-22.933815,69.575935,61.987274,17.435242,34.538654,55.125729,40.851120,4.099638,35.506718
689,0,-119.888367,156.136032,43.710037,-22.856419,69.576454,62.021576,17.553757,34.578190,55.148285,40.921253,4.111591,35.508114
690,0,-119.844810,156.184540,43.720779,-22.753023,69.576881,62.102348,17.701681,34.603298,55.167610,41.035179,4.132590,35.550674
691,0,-119.749229,156.116272,43.769707,-22.669592,69.550552,62.122013,17.868042,34.622776,55.213886,41.121029,4.172596,35.521778
692,0,-119.702599,156.131744,43.792358,-22.512630,69.576347,62.203663,17.987537,34.711353,55.238041,41.268070,4.188895,35.561417
693,0,-119.740303,156.090042,43.751797,-22.432541,69.592781,62.232906,18.141638,34.764210,55.252148,41.369980,4.243942,35.584679
694,0,-119.653091,156.048004,43.682697,-22.362690,69.639236,62.227901,18.273260,34.811512,55.294155,41.468685,4.279409,35.596363
695,0,-119.683266,155.996323,43.597775,-22.316957,69.651932,62.219158,18.329268,34.842941,55.300011,41.501438,4.295027,35.607323
696,0,-119.671486,155.970673,43.479881,-22.311243,69.647194,62.196480,18.386538,34.853603,55.303909,41.585087,4.299084,35.652218
697,0,-119.683144,155.912491,43.322994,-22.353350,69.667427,62.113571,18.373308,34.857677,55.301212,41.587460,4.292941,35.631996
698,0,-119.680145,155.824203,43.134769,-22.400822,69.634666,62.013714,18.333040,34.846088,55.281998,41.610954,4.248651,35.642784
699,0,-119.676117,155.721710,42.918816,-22.515121,69.627953,61.872986,18.223207,34.834167,55.215630,41.573296,4.200366,35.647606
700,0,-119.697952,155.619781,42.745922,-22.644133,69.574966,61.766129,18.155317,34.774200,55.213234,41.500370,4.196571,35.642826
701,0,-119.803757,155.565659,42.530117,-22.741222,69.544441,61.645092,17.991182,34.767506,55.180630,41.439472,4.182686,35.618263
702,0,-119.849510,155.523422,42.402805,-22.842833,69.555725,61.540092,17.937786,34.719070,55.091255,41.384228,4.162027,35.615253
703,0,-119.927040,155.515152,42.294010,-22.917776,69.587006,61.470352,17.844725,34.757973,55.026772,41.398647,4.173429,35.614086
704,0,-119.957542,155.518250,42.221752,-22.887484,69.642265,61.426788,17.863012,34.796474,55.016983,41.383892,4.201198,35.581032
705,0,-119.958252,155.573700,42.204815,-22.813236,69.741982,61.331600,17.883490,34.864204,54.962910,41.371307,4.266191,35.581104
706,0,-119.973724,155.652679,42.173008,-22.746027,69.839867,61.317741,17.940243,34.921146,54.951290,41.358986,4.300963,35.554489
707,0,-119.965805,155.758606,42.182484,-22.675772,69.928085,61.256020,17.969475,35.011494,54.918175,41.403564,4.295012,35.569290
708,0,-119.977654,155.822006,42.226395,-22.575037,70.037689,61.227180,18.003885,35.052002,54.891888,41.419678,4.344032,35.588787
709,0,-119.978394,155.883774,42.236626,-22.482441,70.111542,61.186104,18.094555,35.118061,54.885204,41.441566,4.373306,35.568710
710,0,-119.972183,155.994736,42.254925,-22.391575,70.195312,61.132641,18.170074,35.170925,54.880459,41.469971,4.378517,35.546833
711,0,-119.969254,156.025757,42.233669,-22.344875,70.245438,61.083038,18.193064,35.200272,54.868065,41.512238,4.418526,35.556042
712,0,-119.955238,156.033096,42.224064,-22.322828,70.254570,61.048275,18.233936,35.223480,54.881939,41.557323,4.427009,35.561485
713,0,-119.984077,156.023636,42.191166,-22.345541,70.269348,61.029999,18.221348,35.225742,54.880527,41.525715,4.439478,35.582695
714,0,-119.985741,155.998688,42.153091,-22.341955,70.248886,61.019753,18.200411,35.184006,54.889893,41.525322,4.397898,35.592022
715,0,-120.015495,155.990875,42.071529,-22.384481,70.227608,61.003910,18.175213,35.186531,54.886738,41.531841,4.391792,35.599331
716,0,-120.029114,155.955688,42.055199,-22.403564,70.225357,61.017281,18.173531,35.154030,54.882042,41.514709,4.394798,35.576229
717,0,-120.040794,155.924286,41.986008,-22.409834,70.264709,60.991756,18.162619,35.151958,54.880737,41.508221,4.376441,35.566326
718,0,-120.060684,155.929260,41.981983,-22.402655,70.252426,61.019741,18.163332,35.168072,54.861267,41.499683,4.366282,35.588181
719,0,-120.050102,155.910278,41.931068,-22.375128,70.274338,61.013206,18.163960,35.155972,54.879246,41.516808,4.357844,35.580498
720,0,-120.089111,155.941147,41.910316,-22.364454,70.297089,61.006634,18.133600,35.189041,54.867241,41.499027,4.368917,35.563633
721,0,-120.174728,155.927856,41.900284,-22.385361,70.315269,60.999722,18.121622,35.181034,54.849503,41.495140,4.375696,35.573704
722,0,-120.172180,155.915741,41.899666,-22.406614,70.350632,60.975071,18.079479,35.186295,54.833794,41.486626,4.377156,35.566681
723,0,-120.189606,155.891586,41.863712,-22.386080,70.360649,60.975876,18.142012,35.199165,54.872955,41.494865,4.378584,35.569019
724,0,-120.239502,155.873749,41.839718,-22.412195,70.351631,60.909374,18.142700,35.186726,54.855270,41.496899,4.360500,35.588718
725,0,-120.247284,155.876648,41.804852,-22.394371,70.345230,60.883419,18.135532,35.165661,54.832535,41.490036,4.367964,35.580040
726,0,-120.270065,155.829269,41.785175,-22.431789,70.354202,60.849075,18.117357,35.179882,54.817505,41.500511,4.357466,35.576935
727,0,-120.266747,155.779373,41.691624,-22.463272,70.374779,60.768208,18.118938,35.167442,54.831928,41.503380,4.347250,35.566227
728,0,-120.268883,155.747879,41.677803,-22.433722,70.429146,60.731400,18.127718,35.223614,54.837444,41.538776,4.337266,35.610165
729,0,-120.283791,155.748550,41.627045,-22.467196,70.419861,60.662727,18.144413,35.187599,54.809898,41.541412,4.320539,35.603153
730,0,-120.289673,155.735153,41.585979,-22.451397,70.436485,60.577431,18.149324,35.192875,54.809769,41.552998,4.317883,35.601460
731,0,-120.328560,155.741531,41.507381,-22.453625,70.419853,60.511528,18.091898,35.209400,54.778431,41.601063,4.301501,35.638569
732,0,-120.325844,155.726425,41.445747,-22.461174,70.445419,60.437080,18.105307,35.226978,54.766331,41.604652,4.305696,35.633240
733,0,-120.313362,155.713928,41.412914,-22.457348,70.465096,60.396217,18.103382,35.223534,54.755856,41.609634,4.302589,35.635883
734,0,-120.367752,155.722443,41.368301,-22.513224,70.486931,60.386906,18.036184,35.269562,54.710960,41.607777,4.297067,35.637558
735,0,-120.362679,155.679352,41.315323,-22.526436,70.511818,60.354778,18.049891,35.267670,54.729511,41.600033,4.324440,35.628918
736,0,-120.374229,155.663528,41.284218,-22.518375,70.523979,60.343346,18.032825,35.273823,54.710011,41.563240,4.345341,35.636280
737,0,-120.404770,155.648102,41.279484,-22.520666,70.529396,60.331474,18.025267,35.259388,54.724003,41.579300,4.340415,35.613743
738,0,-120.430168,155.588730,41.259575,-22.514971,70.531502,60.326077,18.030203,35.255135,54.721039,41.600689,4.327709,35.632393
739,0,-120.427910,155.556870,41.254242,-22.503870,70.519028,60.360023,18.072577,35.246178,54.736626,41.614727,4.298874,35.633137
740,0,-120.447929,155.544449,41.245426,-22.509342,70.538200,60.345192,18.105062,35.277931,54.737743,41.632267,4.317403,35.638611
741,0,-120.445282,155.529678,41.251293,-22.467640,70.562462,60.361004,18.131334,35.296379,54.743523,41.635303,4.333747,35.645168
742,0,-120.465981,155.481552,41.233311,-22.442884,70.552956,60.362526,18.159132,35.321503,54.771847,41.700939,4.324720,35.664154
743,0,-120.486481,155.450302,41.264015,-22.366627,70.542877,60.370716,18.228016,35.309349,54.775299,41.755371,4.345263,35.690372
744,0,-120.473289,155.443756,41.223766,-22.366835,70.595917,60.345211,18.258581,35.342060,54.772247,41.752266,4.361468,35.671371
745,0,-120.479904,155.435928,41.209255,-22.364262,70.615746,60.335545,18.254692,35.338104,54.761295,41.737591,4.363543,35.666584
746,0,-120.497765,155.394379,41.196095,-22.357927,70.613968,60.317017,18.255241,35.344376,54.772270,41.743774,4.367918,35.669369
747,0,-120.507729,155.338135,41.145588,-22.378096,70.599846,60.254139,18.248466,35.360847,54.755722,41.766281,4.384356,35.668781
748,0,-120.498703,155.334274,41.095314,-22.367874,70.612839,60.247894,18.197119,35.366901,54.731956,41.754818,4.360528,35.663803
749,0,-120.539574,155.323547,41.047375,-22.377855,70.631424,60.220501,18.171236,35.371971,54.734509,41.733860,4.347509,35.692398
750,0,-120.525093,155.228378,40.963051,-22.472292,70.680870,60.177338,18.140911,35.356377,54.735085,41.723209,4.352495,35.684071
751,0,-120.544708,155.201202,40.873749,-22.485628,70.646111,60.152195,18.104752,35.333698,54.685455,41.672398,4.348761,35.656322
752,0,-120.567596,155.161102,40.780533,-22.533331,70.652473,60.115345,18.065044,35.343197,54.667831,41.661209,4.342865,35.658554
753,0,-120.593231,155.111008,40.668240,-22.611824,70.647736,60.026417,18.039591,35.312263,54.655918,41.656357,4.335887,35.642223
754,0,-120.594452,155.043564,40.571262,-22.643042,70.621529,59.999485,18.014141,35.334702,54.667435,41.624790,4.333248,35.642838
755,0,-120.621651,155.008743,40.504734,-22.699114,70.615128,59.935425,17.943073,35.330334,54.638783,41.606071,4.335990,35.649521
756,0,-120.627754,154.941147,40.412964,-22.730680,70.621109,59.899315,17.934927,35.340752,54.588810,41.604996,4.320965,35.624626
757,0,-120.616158,154.917847,40.291553,-22.783371,70.589279,59.827385,17.895800,35.347168,54.572300,41.566357,4.348482,35.627258
758,0,-120.620255,154.911301,40.183556,-22.859978,70.604652,59.771858,17.811882,35.317642,54.565395,41.532398,4.331736,35.636940
759,0,-120.680969,154.842789,40.108028,-22.924917,70.595421,59.758121,17.789310,35.296837,54.565491,41.512310,4.336236,35.636234
760,0,-120.706703,154.788574,40.039200,-22.990980,70.562279,59.721100,17.726648,35.309605,54.552662,41.477421,4.329876,35.640472
761,0,-120.719147,154.769318,39.934772,-23.032692,70.567764,59.696613,17.695139,35.258648,54.542866,41.477692,4.313761,35.625607
762,0,-120.728333,154.735336,39.919186,-23.064995,70.533646,59.699718,17.645050,35.254528,54.526791,41.453308,4.281468,35.637947
763,0,-120.732994,154.707687,39.828072,-23.111664,70.514862,59.663410,17.622713,35.256771,54.514416,41.445713,4.289168,35.628052
764,0,-120.736633,154.680145,39.808311,-23.154661,70.488037,59.668053,17.598948,35.212688,54.531162,41.447578,4.275722,35.625233
765,0,-120.734756,154.651077,39.774940,-23.150585,70.476540,59.665001,17.604734,35.210857,54.544353,41.454483,4.267524,35.623066
766,0,-120.763199,154.592361,39.769032,-23.120611,70.439316,59.683243,17.605942,35.201164,54.558186,41.461876,4.255790,35.649738
767,0,-120.775894,154.600189,39.777786,-23.142084,70.439697,59.672688,17.598791,35.162643,54.551941,41.456947,4.244558,35.632282
768,0,-120.795906,154.591843,39.767063,-23.146952,70.440758,59.718315,17.596678,35.162022,54.555977,41.451984,4.253710,35.633106
769,0,-120.806740,154.603058,39.760189,-23.165838,70.422653,59.713646,17.600840,35.171112,54.547680,41.472080,4.237034,35.624332
770,0,-120.791092,154.603394,39.781551,-23.109285,70.457054,59.721428,17.648767,35.183018,54.563080,41.472412,4.237154,35.625885
771,0,-120.739655,154.601105,39.837048,-23.097841,70.443092,59.741016,17.639978,35.172863,54.558529,41.474419,4.248749,35.627041
772,0,-120.739746,154.642395,39.870235,-23.087404,70.466507,59.750561,17.685163,35.234375,54.589443,41.484905,4.273258,35.630550
773,0,-120.674507,154.664627,39.894871,-23.006121,70.490036,59.753071,17.731335,35.234402,54.587669,41.529591,4.293167,35.655548
774,0,-120.664955,154.719360,39.934681,-22.997915,70.521561,59.801445,17.758289,35.221882,54.575115,41.550056,4.310181,35.633511
775,0,-120.630783,154.732254,40.000786,-22.963453,70.512871,59.814472,17.801870,35.234497,54.603958,41.562695,4.300053,35.648487
776,0,-120.627472,154.738556,40.074764,-22.958296,70.510773,59.820049,17.795542,35.220539,54.633358,41.563164,4.303472,35.634594
777,0,-120.605637,154.743057,40.118343,-22.940088,70.455360,59.847958,17.826416,35.200119,54.643517,41.584370,4.240882,35.648708
778,0,-120.605377,154.786453,40.199265,-22.945740,70.441193,59.857250,17.777060,35.167000,54.657196,41.573448,4.212987,35.656471
779,0,-120.608818,154.781860,40.217606,-22.954926,70.437233,59.865532,17.771387,35.125359,54.658783,41.579746,4.218443,35.668549
780,0,-120.597496,154.791855,40.287411,-22.924219,70.408211,59.919777,17.773588,35.126450,54.662354,41.589375,4.208554,35.665127
781,0,-120.629311,154.808365,40.348061,-22.931137,70.394112,59.929935,17.814018,35.115707,54.694447,41.591702,4.198055,35.668633
782,0,-120.603310,154.823563,40.386242,-22.930941,70.397606,59.966457,17.800735,35.120453,54.675945,41.597179,4.196824,35.680279
783,0,-120.624557,154.839615,40.444931,-22.940920,70.387451,59.973743,17.775656,35.122952,54.671959,41.578167,4.206126,35.701744
784,0,-120.631424,154.850525,40.474735,-22.955536,70.419556,60.008129,17.763023,35.107006,54.664448,41.523060,4.204962,35.682735
785,0,-120.664940,154.852951,40.493355,-22.943520,70.382385,59.998882,17.750734,35.090546,54.699093,41.514366,4.243846,35.683048
786,0,-120.685951,154.887909,40.484863,-22.968987,70.436142,59.993732,17.753578,35.108570,54.674885,41.509449,4.244670,35.686562
787,0,-120.731102,154.910263,40.490906,-22.971098,70.451431,59.981220,17.751757,35.132881,54.669224,41.494633,4.247120,35.663376
788,0,-120.774971,154.899719,40.444454,-22.991087,70.457741,59.952106,17.725761,35.131966,54.649567,41.486698,4.266570,35.655750
789,0,-120.788887,154.883392,40.404629,-22.988697,70.463600,59.922947,17.711998,35.138874,54.634113,41.487881,4.270297,35.672783
790,0,-120.795311,154.866669,40.342735,-23.015272,70.442993,59.916759,17.710733,35.153000,54.620216,41.486382,4.281921,35.658440
791,0,-120.818970,154.844864,40.298843,-23.018332,70.439117,59.880573,17.696424,35.160931,54.613346,41.490532,4.276688,35.626781
792,0,-120.810844,154.791229,40.246544,-23.047953,70.439499,59.857929,17.663677,35.188156,54.585861,41.476727,4.259897,35.659592
793,0,-120.878555,154.791794,40.192310,-23.082439,70.424759,59.844120,17.679125,35.172310,54.611870,41.490177,4.225316,35.654629
794,0,-120.905968,154.754257,40.201939,-23.090714,70.426308,59.844646,17.661348,35.173183,54.603889,41.480083,4.258840,35.656445
795,0,-120.917709,154.706879,40.159828,-23.103300,70.415337,59.840122,17.682793,35.157654,54.633530,41.485214,4.230187,35.671543
796,0,-120.967079,154.685547,40.126514,-23.120628,70.387756,59.846008,17.671619,35.159023,54.625607,41.504013,4.225142,35.645466
797,0,-120.969559,154.655518,40.133911,-23.102093,70.373322,59.876564,17.695332,35.151226,54.648918,41.488121,4.247112,35.675133
798,0,-121.013405,154.657761,40.126938,-23.108469,70.342621,59.885136,17.706543,35.112038,54.643719,41.533127,4.221840,35.683712
799,0,-121.031509,154.641953,40.123592,-23.099598,70.335785,59.894630,17.722542,35.110973,54.658489,41.551758,4.261109,35.678944
800,0,-121.053459,154.618149,40.097355,-23.092928,70.335739,59.895836,17.728243,35.126766,54.654015,41.562431,4.240272,35.683395
801,0,-121.076485,154.590240,40.106861,-23.103640,70.321198,59.949974,17.741724,35.143303,54.661873,41.562519,4.256235,35.682899
802,0,-121.085876,154.601242,40.080418,-23.139515,70.296570,59.921001,17.774740,35.125343,54.660534,41.556793,4.262404,35.643627
803,0,-121.084724,154.601776,40.075443,-23.158136,70.313820,59.936245,17.767025,35.149063,54.651188,41.568607,4.304731,35.636707
804,0,-121.104233,154.630783,40.062309,-23.153196,70.297714,59.955360,17.759590,35.148701,54.651081,41.563377,4.305942,35.635075
805,0,-121.071274,154.638901,40.049850,-23.141026,70.294891,59.944866,17.767859,35.149490,54.653122,41.557549,4.305306,35.636536
806,0,-121.033623,154.680817,40.050762,-23.156790,70.323616,59.949478,17.782194,35.204342,54.621723,41.590488,4.360632,35.634010
807,0,-121.016144,154.712082,40.048820,-23.134129,70.326271,59.945957,17.824471,35.223358,54.612953,41.592236,4.361893,35.634007
808,0,-121.000305,154.762146,39.992409,-23.117887,70.350533,59.957947,17.847864,35.235687,54.621445,41.593269,4.381622,35.632904
809,0,-120.977364,154.778854,39.982613,-23.093929,70.349678,59.951241,17.872458,35.246960,54.594730,41.629097,4.374801,35.642845
810,0,-120.963684,154.810211,39.966694,-23.088043,70.358551,59.937202,17.864727,35.264549,54.588627,41.613060,4.404212,35.645672
811,0,-120.966148,154.809509,39.959988,-23.093245,70.375336,59.905460,17.867840,35.275215,54.593903,41.607559,4.406787,35.635674
812,0,-120.934929,154.808655,39.940918,-23.065685,70.381584,59.930260,17.864595,35.258614,54.603142,41.620735,4.392171,35.644924
813,0,-120.918381,154.845779,39.941021,-23.088337,70.398140,59.923077,17.867542,35.273170,54.599304,41.598370,4.403369,35.641865
814,0,-120.902557,154.845795,39.927441,-23.064734,70.411285,59.901569,17.864494,35.268353,54.603691,41.602634,4.397444,35.639091
815,0,-120.930122,154.844757,39.888210,-23.075451,70.389839,59.896988,17.864458,35.256172,54.611576,41.606468,4.379550,35.633793
816,0,-120.917480,154.862274,39.858776,-23.070805,70.388786,59.902557,17.841076,35.262165,54.611664,41.586571,4.363224,35.623894
817,0,-120.919907,154.847946,39.873413,-23.113411,70.414925,59.872967,17.837311,35.249962,54.601738,41.582138,4.341467,35.636196
818,0,-120.940491,154.894547,39.813133,-23.130318,70.383919,59.885418,17.797394,35.282345,54.595722,41.566982,4.363921,35.633278
819,0,-120.936401,154.880417,39.780979,-23.145958,70.392303,59.875797,17.763945,35.225266,54.572487,41.570251,4.347898,35.622826
820,0,-120.913994,154.859024,39.742321,-23.154266,70.386696,59.873856,17.753902,35.233170,54.581879,41.555016,4.368188,35.624004
821,0,-120.913277,154.860886,39.717613,-23.174997,70.415550,59.863758,17.817595,35.276035,54.562550,41.587643,4.386956,35.621544
822,0,-120.925743,154.875275,39.652954,-23.226242,70.376770,59.875229,17.792124,35.323822,54.547958,41.617893,4.420799,35.626053
823,0,-120.918495,154.881546,39.629379,-23.231543,70.367683,59.858772,17.829830,35.318192,54.528481,41.608883,4.446461,35.621071
824,0,-120.923874,154.833817,39.578251,-23.225393,70.357063,59.870277,17.833828,35.310883,54.529659,41.618439,4.468234,35.623047
825,0,-120.950974,154.860535,39.571095,-23.221348,70.357422,59.880730,17.861511,35.339752,54.517319,41.638309,4.488801,35.621784
826,0,-120.898811,154.841843,39.562172,-23.203802,70.357101,59.877747,17.896727,35.372463,54.497871,41.655888,4.501637,35.623451
827,0,-120.922020,154.858459,39.559109,-23.245251,70.382637,59.860130,17.893742,35.385105,54.509201,41.679916,4.537848,35.609898
828,0,-120.909088,154.880722,39.538246,-23.194748,70.391701,59.885380,17.899685,35.421329,54.477055,41.667858,4.575675,35.584190
829,0,-120.873573,154.894379,39.549271,-23.179600,70.410591,59.892464,17.903252,35.417812,54.483730,41.677887,4.575560,35.585239
830,0,-120.887703,154.918243,39.585663,-23.173794,70.401428,59.903641,17.905863,35.415878,54.484837,41.693939,4.568924,35.606594
831,0,-120.890594,154.925156,39.616150,-23.151676,70.388077,59.916027,17.936163,35.412025,54.474339,41.706612,4.558915,35.616909
832,0,-120.879257,154.939484,39.612556,-23.191351,70.427147,59.909435,17.919775,35.406597,54.497337,41.676441,4.577925,35.583511
833,0,-120.849075,154.958084,39.612045,-23.349354,70.553192,59.936707,17.927629,35.419914,54.498131,41.687874,4.570277,35.587513
834,0,-120.878593,155.015427,39.620384,-23.466730,70.616600,59.937645,17.957926,35.398258,54.526558,41.703686,4.545815,35.609711
835,0,-120.849586,155.004745,39.634590,-23.209192,70.451530,60.006237,17.914869,35.408539,54.537991,41.679173,4.521674,35.603294
836,0,-120.866829,155.033478,39.603886,-23.195076,70.485054,59.986496,17.946709,35.411335,54.505890,41.682774,4.537381,35.583462
837,0,-120.816948,155.048050,39.605511,-23.182632,70.469429,59.983044,17.978081,35.413200,54.500896,41.691013,4.547992,35.589970
838,0,-120.852318,155.026382,39.604755,-23.204565,70.470772,60.015984,17.983952,35.456902,54.506691,41.737484,4.583243,35.580647
839,0,-120.840736,155.051987,39.586788,-23.224482,70.441856,60.023880,17.979509,35.447590,54.489506,41.716503,4.608057,35.577053
840,0,-120.870270,155.021973,39.591602,-23.219542,70.420509,60.037567,17.967579,35.435280,54.492069,41.722382,4.619843,35.575024
841,0,-120.889854,154.994644,39.615540,-23.232950,70.421471,60.067978,17.970448,35.451988,54.474274,41.742096,4.619647,35.592617
842,0,-120.899559,154.990601,39.645435,-23.258490,70.375244,60.098835,17.992226,35.449009,54.483265,41.741787,4.650005,35.591816
843,0,-120.911240,154.970337,39.655132,-23.255693,70.373917,60.111797,18.038721,35.426205,54.507763,41.744099,4.640582,35.583054
844,0,-120.946686,154.995621,39.674667,-23.244425,70.374557,60.142799,18.008289,35.482384,54.478661,41.750023,4.648505,35.584049
845,0,-120.915268,154.987366,39.670792,-23.242496,70.365814,60.133045,18.015089,35.489704,54.478085,41.732521,4.661161,35.550140
846,0,-120.963463,154.991043,39.687836,-23.231100,70.373703,60.160625,18.051680,35.461636,54.478474,41.797409,4.684416,35.581032
847,0,-120.966820,154.999969,39.692104,-23.224468,70.392136,60.168884,18.094187,35.473595,54.483204,41.818653,4.655088,35.582558
848,0,-120.955681,155.002823,39.713898,-23.181826,70.391060,60.178627,18.135746,35.470264,54.518875,41.824100,4.687070,35.580738
849,0,-120.997719,155.009079,39.708500,-23.358376,70.528763,60.146324,18.127430,35.503323,54.492802,41.819073,4.656634,35.585247
850,0,-120.986626,154.981781,39.728210,-23.326807,70.521111,60.158398,18.129042,35.469398,54.525837,41.844006,4.653980,35.581211
851,0,-120.985344,154.980515,39.733009,-23.326094,70.521538,60.145447,18.112621,35.453247,54.523884,41.815010,4.684550,35.588097
852,0,-121.014145,154.966599,39.739239,-23.302237,70.504593,60.140446,18.096975,35.444546,54.512108,41.830162,4.658944,35.591316
853,0,-121.030533,154.933182,39.801037,-23.279295,70.458580,60.150993,18.100779,35.409950,54.525871,41.804317,4.628840,35.609760
854,0,-121.058456,154.955795,39.821373,-23.239998,70.442902,60.157059,18.080231,35.415180,54.534573,41.797848,4.604432,35.578598
855,0,-121.110550,154.959503,39.778885,-23.255671,70.446274,60.134296,18.062672,35.394722,54.532192,41.757816,4.628602,35.590076
856,0,-121.126694,154.934967,39.876400,-23.271950,70.444344,60.149353,18.039835,35.379410,54.526337,41.731148,4.592694,35.565826
857,0,-121.157707,154.920242,39.892517,-23.225624,70.409042,60.164021,18.030466,35.382309,54.540356,41.730179,4.592890,35.553864
858,0,-121.225998,154.896851,39.955521,-23.245533,70.377930,60.153008,18.004395,35.325489,54.537231,41.711887,4.563405,35.574394
859,0,-121.254913,154.890839,40.006771,-23.228420,70.331612,60.197769,18.001892,35.320496,54.546520,41.723801,4.545671,35.612072
860,0,-121.306808,154.872131,40.117973,-23.224239,70.341362,60.253021,17.961979,35.312435,54.569775,41.659996,4.533401,35.597404
861,0,-121.357964,154.859039,40.158337,-23.250465,70.350906,60.280907,17.958546,35.319374,54.589737,41.646908,4.519733,35.576107
862,0,-121.393906,154.899765,40.215096,-23.312756,70.358536,60.286484,17.937622,35.326092,54.590923,41.640682,4.513629,35.598576
863,0,-121.424385,154.874954,40.239689,-23.412296,70.434090,60.294769,17.982565,35.287457,54.576015,41.660870,4.560689,35.589340
864,0,-121.526253,154.913742,40.278481,-23.541466,70.491722,60.364346,17.973711,35.340591,54.549614,41.689083,4.564948,35.578701
865,0,-121.526016,154.898346,40.287361,-23.200384,70.248032,60.405247,17.981489,35.345959,54.551750,41.677635,4.592968,35.564648
866,0,-121.542107,154.888840,40.262943,-23.230818,70.219971,60.371731,17.938995,35.358742,54.526321,41.685734,4.620202,35.555241
867,0,-121.601082,154.873230,40.251335,-23.237173,70.212196,60.352852,18.000164,35.327534,54.531517,41.655308,4.603331,35.571022
868,0,-121.584534,154.854706,40.200909,-23.236242,70.226089,60.333256,17.928240,35.362789,54.514851,41.660110,4.626385,35.570484
869,0,-121.629227,154.801788,40.166325,-23.273228,70.228729,60.331158,17.900341,35.364090,54.481792,41.632599,4.642742,35.555843
870,0,-121.651260,154.788422,40.136238,-23.339777,70.218231,60.290260,17.869198,35.374664,54.494942,41.638790,4.609572,35.566570
871,0,-121.670235,154.816299,40.104000,-23.325235,70.219864,60.286373,17.877876,35.363907,54.466385,41.621075,4.625044,35.550091
872,0,-121.684517,154.813751,40.103550,-23.315695,70.208618,60.271244,17.877094,35.362144,54.481010,41.613255,4.607303,35.566860
873,0,-121.686035,154.776291,40.120461,-23.307066,70.214478,60.310997,17.881596,35.366146,54.483955,41.635666,4.599192,35.558094
874,0,-121.689819,154.794373,40.104538,-23.272736,70.243599,60.283657,17.889328,35.376110,54.490326,41.635479,4.597745,35.537067
875,0,-121.660316,154.833664,40.093819,-23.257980,70.246140,60.282673,17.907059,35.400787,54.485992,41.672493,4.617085,35.559566
876,0,-121.614738,154.840912,40.081558,-23.222626,70.283112,60.317627,17.960382,35.374386,54.519653,41.682972,4.620817,35.578453
877,0,-121.587212,154.835220,40.080799,-23.165686,70.303658,60.332958,17.979458,35.395119,54.547871,41.687382,4.623847,35.581604
878,0,-121.598572,154.908920,40.080791,-23.119499,70.279869,60.334290,18.003340,35.434647,54.559662,41.685078,4.627365,35.582909
879,0,-121.550285,154.932709,40.099232,-23.126856,70.312706,60.319653,18.074394,35.424118,54.553486,41.696011,4.659285,35.586067
880,0,-121.521378,154.886551,40.089149,-23.112776,70.297562,60.377773,18.115248,35.430614,54.532993,41.764511,4.666101,35.601006
881,0,-121.471527,154.872986,40.047409,-23.107252,70.292488,60.389175,18.116861,35.444160,54.523388,41.787296,4.674231,35.588249
882,0,-121.467682,154.926605,40.093334,-23.100998,70.295761,60.374165,18.143057,35.446453,54.551350,41.790882,4.683522,35.599697
883,0,-121.468689,154.916748,40.107029,-23.104555,70.287537,60.383083,18.141270,35.456741,54.566540,41.802994,4.685140,35.578255
884,0,-121.456291,154.954361,40.088890,-23.127672,70.280350,60.407070,18.139393,35.454510,54.567574,41.806732,4.708953,35.595497
885,0,-121.438965,154.971130,40.130302,-23.124262,70.282661,60.381332,18.134094,35.471031,54.551121,41.789951,4.746099,35.573971
886,0,-121.409302,155.002319,40.123867,-23.040651,70.330467,60.312057,18.139437,35.486221,54.539597,41.824200,4.707085,35.595451
887,0,-121.396591,155.024918,40.147495,-23.100594,70.347084,60.373360,18.142515,35.511272,54.538990,41.796974,4.752000,35.601227
888,0,-121.383064,155.082565,40.137108,-23.054529,70.336182,60.387287,18.147682,35.510136,54.527382,41.792988,4.767103,35.593296
889,0,-121.361572,155.091049,40.143822,-23.056427,70.369995,60.371857,18.133818,35.535915,54.539631,41.795837,4.758075,35.565662
890,0,-121.363823,155.116180,40.154472,-23.067055,70.381119,60.354675,18.141491,35.510139,54.516609,41.774181,4.757040,35.589954
891,0,-121.359550,155.150787,40.125317,-23.098679,70.415726,60.338100,18.137497,35.524906,54.514297,41.760185,4.757025,35.583145
892,0,-121.373299,155.154449,40.104504,-23.101040,70.430428,60.342960,18.126345,35.506203,54.493217,41.743553,4.757642,35.559761
893,0,-121.350258,155.157806,40.088169,-23.106585,70.432655,60.337196,18.132473,35.524578,54.493191,41.764435,4.747381,35.599312
894,0,-121.389931,155.124390,40.094559,-23.124660,70.425163,60.345982,18.135185,35.545673,54.494156,41.748779,4.795110,35.544334
895,0,-121.413376,155.066391,40.080616,-23.130249,70.356247,60.326363,18.117983,35.551521,54.487091,41.757465,4.773892,35.556396
896,0,-121.429886,155.076599,40.067593,-23.134527,70.361725,60.372036,18.106220,35.507664,54.498272,41.756668,4.767730,35.556736
897,0,-121.430664,155.031631,40.063446,-23.168756,70.324577,60.367775,18.079884,35.497841,54.478752,41.764801,4.787864,35.563778
898,0,-121.450775,155.036865,40.059261,-23.194462,70.305954,60.387867,18.109535,35.512024,54.484924,41.769768,4.783113,35.564342
899,0,-121.471970,155.007584,40.081833,-23.198483,70.281845,60.414558,18.109699,35.496300,54.477306,41.748447,4.795012,35.548977
900,0,-121.466187,154.988800,40.089691,-23.222843,70.277420,60.400913,18.106085,35.496586,54.479996,41.756458,4.802221,35.548691
901,0,-121.497345,154.973373,40.090946,-23.201839,70.274788,60.426548,18.102489,35.494415,54.478455,41.791241,4.800422,35.528580
902,0,-121.480843,154.975037,40.117729,-23.210831,70.253548,60.446678,18.130333,35.507885,54.492336,41.779182,4.804527,35.560001
903,0,-121.497635,154.992920,40.148178,-23.208841,70.235634,60.451180,18.110415,35.493061,54.480888,41.761269,4.813338,35.516834
904,0,-121.506935,155.012451,40.188602,-23.229134,70.243668,60.426487,18.095364,35.496986,54.483910,41.762657,4.795798,35.542282
905,0,-121.510658,155.002167,40.225025,-23.194031,70.243019,60.465015,18.111244,35.476768,54.504898,41.757473,4.791394,35.526711
906,0,-121.473564,155.026337,40.270321,-23.197075,70.249779,60.481258,18.096344,35.455772,54.510708,41.753830,4.792462,35.548981
907,0,-121.463806,155.051102,40.276299,-23.188656,70.256210,60.478825,18.133736,35.484577,54.505966,41.757450,4.789379,35.538040
908,0,-121.406509,155.072769,40.287880,-23.137321,70.245338,60.486141,18.123886,35.482441,54.499294,41.772392,4.785484,35.554199
909,0,-121.395416,155.113037,40.323311,-23.050117,70.315269,60.419090,18.138926,35.501083,54.515442,41.794937,4.742841,35.579956
910,0,-121.333710,155.162445,40.351082,-23.013771,70.336853,60.403252,18.149942,35.494411,54.545357,41.794716,4.742508,35.572990
911,0,-121.308533,155.168716,40.358578,-23.042681,70.344727,60.437492,18.381721,35.454784,54.702995,41.846302,4.792955,35.581909
912,0,-121.293640,155.214569,40.371944,-22.960482,70.358643,60.362305,18.224140,35.501976,54.598297,41.856152,4.780461,35.597229
913,0,-121.243637,155.238129,40.420647,-23.159138,70.551849,60.315880,18.175713,35.498390,54.553406,41.795486,4.720072,35.576836
914,0,-121.221893,155.282486,40.432827,-23.078968,70.504272,60.352642,18.378012,35.476601,54.700829,41.852222,4.790223,35.610043
915,0,-121.234215,155.332733,40.463982,-22.978167,70.427086,60.406696,18.379988,35.474106,54.703667,41.851891,4.779161,35.609379
916,0,-121.196648,155.313278,40.485058,-22.932304,70.391174,60.393059,18.435537,35.525463,54.649128,41.851791,4.800567,35.597240
