Trajectories
100
,,Sano:Wrist,,,Sano:MPH3,,,Sano:PIP3,,,Sano:DIP3,,,
Frame,Sub Frame,X,Y,Z,X,Y,Z,X,Y,Z,X,Y,Z
,,mm,mm,mm,mm,mm,mm,mm,mm,mm,mm,mm,mm
1,0,116.519478,174.329636,123.226852,250.102814,116.721672,110.463409,293.094269,93.605835,78.744781,310.054962,72.825310,45.856419
2,0,116.531403,174.343338,123.224281,250.124100,116.726608,110.471130,293.030914,93.812660,78.611214,310.052429,72.842476,45.855732
3,0,116.509880,174.335510,123.216209,250.118042,116.748032,110.466698,293.076050,93.625626,78.734390,310.054626,72.847435,45.831097
4,0,116.538345,174.324570,123.183449,250.117508,116.757309,110.452705,293.085907,93.644714,78.729408,310.060699,72.887711,45.828377
5,0,116.535812,174.306686,123.189911,250.107498,116.757927,110.473244,293.092834,93.656494,78.728737,310.088776,72.897141,45.829735
6,0,116.536476,174.327423,123.195465,250.117752,116.755920,110.474297,293.098419,93.672691,78.718651,310.106415,72.890762,45.862083
7,0,116.553268,174.286575,123.191917,250.101395,116.755783,110.470253,293.104767,93.686813,78.728195,310.106873,72.888657,45.853065
8,0,116.527954,174.254761,123.184219,250.103439,116.733536,110.470978,293.109558,93.680527,78.718689,310.133728,72.872665,45.861526
9,0,116.550285,174.239349,123.196579,250.111755,116.698906,110.470810,293.116425,93.654724,78.735504,310.156677,72.857590,45.849884
10,0,116.551277,174.210022,123.206436,250.105179,116.665367,110.478386,293.114502,93.648453,78.741333,310.313751,72.697868,45.930698
11,0,116.538231,174.219986,123.161957,250.104126,116.662491,110.443489,293.087311,93.637161,78.736115,310.303802,72.680084,45.897076
12,0,116.531265,174.197250,123.132263,250.099808,116.642105,110.415138,293.043243,93.808014,78.629051,310.298340,72.676140,45.905457
13,0,116.553467,174.209274,123.109489,250.093933,116.648430,110.403847,293.071472,93.644592,78.697716,310.270294,72.649872,45.900436
14,0,116.552094,174.202820,123.142700,250.102463,116.642288,110.408867,293.077759,93.654152,78.678551,310.266968,72.647202,45.902523
15,0,116.561600,174.196381,123.114174,250.094437,116.638306,110.421249,293.091553,93.645447,78.682518,310.296631,72.632156,45.900749
16,0,116.577408,174.168076,123.116615,250.080673,116.628677,110.402267,293.096069,93.656700,78.677307,310.306763,72.622406,45.911728
17,0,116.566200,174.146866,123.103050,250.104691,116.615730,110.414627,293.094482,93.642960,78.671509,310.337830,72.611374,45.890381
18,0,116.591660,174.148926,123.146240,250.112320,116.594864,110.419373,293.116211,93.602684,78.679832,310.336823,72.626678,45.916374
19,0,116.588211,174.132355,123.139671,250.110977,116.578323,110.421959,293.104523,93.610603,78.686562,310.381256,72.567780,45.894768
20,0,116.596497,174.109772,123.130440,250.124939,116.540741,110.406662,293.116852,93.549271,78.663628,310.383484,72.552002,45.893139
21,0,116.619392,174.109085,123.090775,250.118378,116.534721,110.360352,293.113403,93.551208,78.639450,310.415466,72.497818,45.887264
22,0,116.609169,174.100174,123.081818,250.141388,116.540077,110.346756,293.124512,93.537521,78.641075,310.432953,72.466507,45.860126
23,0,116.629860,174.112183,123.079224,250.135040,116.533272,110.341530,293.117340,93.535919,78.620407,310.431671,72.450600,45.841408
24,0,116.628510,174.113083,123.082420,250.136490,116.544807,110.326103,293.108002,93.530403,78.617020,310.398987,72.451729,45.840530
25,0,116.619774,174.114014,123.083931,250.150436,116.554314,110.318901,293.118317,93.511925,78.611168,310.399872,72.435059,45.825184
26,0,116.616325,174.122040,123.076485,250.133575,116.540146,110.313278,293.117310,93.515839,78.604324,310.355316,72.485245,45.795341
27,0,116.633720,174.113068,123.077248,250.137711,116.542793,110.304672,293.097961,93.511002,78.588432,310.423157,72.426788,45.815063
28,0,116.619637,174.128143,123.076683,250.121765,116.537704,110.317947,293.116730,93.521271,78.583939,310.370758,72.446617,45.808834
29,0,116.628433,174.129700,123.088272,250.122009,116.535530,110.315178,293.105255,93.522301,78.573006,310.405426,72.443756,45.817120
30,0,116.628624,174.121658,123.073639,250.140045,116.542435,110.307289,293.104584,93.527267,78.560860,310.410370,72.464043,45.797588
31,0,116.636383,174.135971,123.081093,250.137299,116.556473,110.290932,293.100342,93.529854,78.550835,310.394226,72.481071,45.754372
32,0,116.633148,174.131943,123.083244,250.156219,116.562241,110.257156,293.117340,93.552681,78.534546,310.401276,72.479141,45.745899
33,0,116.646530,174.135468,123.067818,250.172821,116.559113,110.244324,293.142639,93.543373,78.524475,310.430023,72.487671,45.713261
34,0,116.652214,174.153214,123.042053,250.180191,116.557800,110.227852,293.145721,93.510330,78.544189,310.463104,72.479614,45.734898
35,0,116.649155,174.140198,123.033058,250.200516,116.582436,110.220108,293.151215,93.564087,78.502419,310.400787,72.536049,45.673363
36,0,116.664749,174.138504,123.060966,250.192825,116.573563,110.235451,293.154510,93.552208,78.510750,310.414032,72.513168,45.689880
37,0,116.666031,174.147079,123.047630,250.205933,116.558929,110.227127,293.168152,93.546387,78.504341,310.466400,72.474663,45.708771
38,0,116.654526,174.144821,123.046112,250.189957,116.576561,110.247543,293.126770,93.556740,78.519104,310.447357,72.505074,45.742195
39,0,116.640907,174.133835,123.047684,250.162216,116.568848,110.260208,293.148773,93.558662,78.522064,310.453827,72.514931,45.737736
40,0,116.653496,174.134857,123.067322,250.159622,116.572441,110.252495,293.152679,93.542099,78.527817,310.424988,72.521263,45.737522
41,0,116.634819,174.130051,123.050308,250.165939,116.575493,110.247452,293.117126,93.551041,78.531662,310.414459,72.517586,45.749088
42,0,116.635475,174.144562,123.053246,250.170349,116.566025,110.266716,293.124298,93.542061,78.549423,310.439972,72.486023,45.758068
43,0,116.627876,174.158691,123.054031,250.159180,116.577568,110.271347,293.116241,93.548409,78.531342,310.416718,72.499397,45.745304
44,0,116.645935,174.153885,123.054749,250.152863,116.569061,110.259323,293.130859,93.550644,78.523811,310.409454,72.481384,45.743202
45,0,116.650253,174.155045,123.051453,250.145081,116.564476,110.227684,293.125580,93.549767,78.522842,310.399139,72.479980,45.701305
46,0,116.659798,174.154297,123.024696,250.187103,116.564072,110.215210,293.130219,93.544479,78.488914,310.405518,72.527748,45.673931
47,0,116.657639,174.138062,123.010414,250.170975,116.565544,110.215469,293.156311,93.491463,78.491325,310.409973,72.529945,45.670830
48,0,116.667648,174.161362,123.028214,250.197388,116.563194,110.201019,293.150513,93.500275,78.493103,310.446564,72.522530,45.665474
49,0,116.674309,174.160828,123.035591,250.194824,116.567764,110.204857,293.158722,93.513283,78.484718,310.436035,72.513245,45.667934
50,0,116.658249,174.159683,123.030930,250.184799,116.560432,110.189667,293.181641,93.494125,78.484718,310.409027,72.519531,45.633488
51,0,116.673271,174.137878,123.016449,250.207550,116.563515,110.177261,293.198914,93.486900,78.445412,310.442993,72.517845,45.625431
52,0,116.679100,174.114243,123.007935,250.210114,116.535141,110.147804,293.178772,93.473503,78.424492,310.415100,72.501297,45.585239
53,0,116.679565,174.120743,122.994591,250.198090,116.527443,110.142563,293.183228,93.477219,78.420311,310.393951,72.489479,45.566395
54,0,116.680397,174.116623,123.002342,250.192612,116.535347,110.167618,293.185059,93.458633,78.428848,310.376923,72.482048,45.594303
55,0,116.695908,174.126526,123.016830,250.207336,116.528175,110.154869,293.163513,93.449577,78.446220,310.393372,72.466423,45.608421
56,0,116.681015,174.097473,123.003868,250.204803,116.531998,110.181396,293.175476,93.455139,78.458946,310.409485,72.476318,45.600845
57,0,116.680557,174.108063,123.007668,250.195831,116.522018,110.186432,293.128662,93.488899,78.404343,310.368835,72.478371,45.601204
58,0,116.683914,174.112381,123.015594,250.203781,116.512993,110.207901,293.140808,93.485962,78.407578,310.397003,72.442444,45.623753
59,0,116.689812,174.095184,123.045753,250.186829,116.506882,110.190483,293.139069,93.429886,78.444321,310.387146,72.449402,45.615894
60,0,116.683784,174.106674,123.007622,250.194901,116.508049,110.175797,293.145813,93.436523,78.455338,310.393890,72.423027,45.641895
61,0,116.677330,174.116837,123.020103,250.180420,116.510994,110.174927,293.140686,93.442070,78.430679,310.414764,72.439156,45.635880
62,0,116.687355,174.124084,123.021172,250.205612,116.522011,110.173386,293.170441,93.444000,78.444160,310.440186,72.425339,45.648693
63,0,116.676208,174.120193,123.026268,250.204391,116.527031,110.159790,293.181030,93.441338,78.451691,310.389923,72.442520,45.616184
64,0,116.693939,174.116913,122.999001,250.213867,116.515671,110.165237,293.195251,93.458847,78.454742,310.426300,72.445290,45.634808
65,0,116.709167,174.112976,123.006973,250.228317,116.523338,110.146294,293.168915,93.457634,78.437401,310.402374,72.465042,45.605080
66,0,116.691139,174.120651,123.012405,250.200272,116.523796,110.159019,293.195007,93.462418,78.457077,310.395081,72.458450,45.599407
67,0,116.685547,174.124603,123.030876,250.202362,116.518875,110.186478,293.155151,93.453888,78.449448,310.409760,72.474937,45.590664
68,0,116.665604,174.135834,123.023331,250.184891,116.514442,110.174698,293.143158,93.453239,78.446159,310.376251,72.461922,45.610481
69,0,116.676186,174.098999,122.992447,250.188446,116.514763,110.166801,293.139526,93.451729,78.459068,310.389984,72.455170,45.630001
70,0,116.676521,174.098236,122.988121,250.176910,116.526138,110.192284,293.132141,93.446434,78.451134,310.417145,72.440620,45.641731
71,0,116.666130,174.129944,122.998985,250.185852,116.529694,110.190712,293.153748,93.442139,78.489037,310.406342,72.448944,45.667194
72,0,116.631950,174.141174,123.025146,250.187134,116.528305,110.198814,293.109589,93.495232,78.468895,310.418091,72.427307,45.685654
73,0,116.648735,174.115555,123.002342,250.178635,116.532089,110.211990,293.115997,93.489914,78.469215,310.395905,72.451935,45.698143
74,0,116.627838,174.129639,123.019974,250.170624,116.547295,110.226433,293.114136,93.507072,78.517365,310.431458,72.431244,45.728920
75,0,116.648323,174.144257,123.050179,250.170502,116.543396,110.233337,293.113007,93.518982,78.550278,310.434937,72.442001,45.767815
76,0,116.640602,174.135941,123.041000,250.142456,116.539528,110.296028,293.116241,93.525032,78.569000,310.349823,72.488747,45.759911
77,0,116.629890,174.149506,123.050262,250.144119,116.555946,110.251358,293.104309,93.531219,78.558449,310.411743,72.437447,45.786968
78,0,116.647865,174.139893,123.006935,250.135208,116.560173,110.265778,293.117310,93.520920,78.567863,310.440186,72.440392,45.806965
79,0,116.631775,174.168747,123.013466,250.136169,116.569283,110.279793,293.115631,93.536530,78.587128,310.432190,72.447372,45.826366
80,0,116.637138,174.174866,123.032516,250.147903,116.579308,110.283707,293.122803,93.548401,78.601860,310.470276,72.433945,45.847713
81,0,116.629364,174.183121,123.028862,250.136917,116.579086,110.286377,293.106964,93.553009,78.597183,310.431213,72.457603,45.827209
82,0,116.601913,174.181412,123.041008,250.129852,116.567986,110.299583,293.093506,93.566734,78.618782,310.441895,72.470314,45.864426
83,0,116.608452,174.185883,123.039070,250.130829,116.569305,110.292709,293.109528,93.527641,78.629982,310.416962,72.463753,45.835915
84,0,116.571060,174.206177,123.046097,250.107788,116.528793,110.319031,293.087372,93.507538,78.603531,310.396362,72.452812,45.830750
85,0,116.590240,174.189728,123.052109,250.092590,116.539497,110.317696,293.075897,93.487579,78.609520,310.366455,72.428810,45.833488
86,0,116.602440,174.175278,123.040398,250.086182,116.516212,110.329323,293.049377,93.474907,78.628578,310.345123,72.382500,45.836987
87,0,116.598946,174.191467,123.058472,250.082108,116.514297,110.329796,293.050049,93.459412,78.642334,310.346222,72.361305,45.862400
88,0,116.600204,174.218063,123.044998,250.087204,116.514198,110.318939,293.047729,93.456490,78.656166,310.337494,72.358276,45.856773
89,0,116.599472,174.224136,123.035103,250.103928,116.518356,110.326080,293.073303,93.432373,78.627014,310.367676,72.327347,45.864162
90,0,116.629700,174.189758,123.029083,250.118286,116.511078,110.329849,293.072479,93.440094,78.656174,310.367249,72.323097,45.871513
91,0,116.613876,174.169189,123.013939,250.133728,116.492004,110.341721,293.116150,93.456818,78.652954,310.442322,72.325012,45.930328
92,0,116.642349,174.145416,123.023277,250.120789,116.491821,110.330284,293.120972,93.449532,78.678085,310.404724,72.367645,45.898926
93,0,116.632820,174.158768,123.063835,250.133102,116.496643,110.342026,293.109467,93.448364,78.686691,310.430359,72.359879,45.924454
94,0,116.636070,174.155289,123.077744,250.127670,116.496872,110.367668,293.123444,93.448639,78.695091,310.479919,72.313293,45.968731
95,0,116.633583,174.134384,123.077324,250.102341,116.479721,110.389221,293.096924,93.436424,78.715240,310.456818,72.315277,45.978226
96,0,116.605324,174.143936,123.061203,250.091553,116.475677,110.373650,293.093018,93.415359,78.741203,310.446564,72.309898,45.987778
97,0,116.584564,174.155273,123.046844,250.070358,116.467941,110.382256,293.052551,93.402550,78.725899,310.368134,72.328430,45.977600
98,0,116.574173,174.141144,123.052437,250.065506,116.477379,110.404198,293.045044,93.394127,78.735001,310.346161,72.320557,45.991737
99,0,116.558960,174.173141,123.032791,250.021393,116.490143,110.401146,293.009277,93.398193,78.744377,310.338440,72.271729,45.993454
100,0,116.557487,174.176376,123.011032,250.012756,116.491180,110.409424,293.000305,93.393173,78.762466,310.317841,72.286774,46.007809
101,0,116.541054,174.185471,123.007462,250.013412,116.488976,110.411331,292.972412,93.395561,78.746925,310.302338,72.281715,46.007957
102,0,116.507904,174.150681,123.019691,250.005936,116.502899,110.412292,292.990051,93.399467,78.774521,310.304596,72.290474,46.025364
103,0,116.516876,174.173019,123.044380,250.015137,116.512527,110.418991,292.992310,93.431435,78.791573,310.327209,72.291023,46.056156
104,0,116.503059,174.183487,123.039154,250.011169,116.512054,110.408203,292.974457,93.435867,78.799576,310.274170,72.341225,46.049957
105,0,116.508957,174.175507,123.048439,250.018265,116.508430,110.449318,292.996979,93.455109,78.792549,310.320038,72.357712,46.059925
106,0,116.517128,174.165619,123.064117,249.986984,116.511971,110.460533,293.026123,93.460327,78.806671,310.339874,72.384766,46.068184
107,0,116.504814,174.171494,123.046402,249.986618,116.499214,110.441101,293.006287,93.461304,78.811546,310.372284,72.379913,46.080448
108,0,116.481842,174.156403,123.019859,249.982147,116.497093,110.443771,292.993378,93.445839,78.818703,310.352020,72.391510,46.075901
109,0,116.499603,174.134720,123.024467,249.982773,116.488602,110.437202,292.995331,93.427261,78.825539,310.367737,72.345688,46.108627
110,0,116.499336,174.154495,123.030426,249.990509,116.474777,110.436516,293.011353,93.417130,78.800568,310.341888,72.336617,46.080524
111,0,116.505142,174.140976,123.036186,249.974609,116.468697,110.438728,292.988831,93.402367,78.801376,310.350983,72.283989,46.116558
112,0,116.508652,174.140503,123.041206,249.986176,116.461716,110.421585,292.995331,93.389580,78.810600,310.365936,72.282761,46.094604
113,0,116.510979,174.133148,123.064774,249.995850,116.444786,110.425453,292.982178,93.363182,78.808578,310.287659,72.289261,46.057602
114,0,116.511055,174.110474,123.059296,250.012756,116.427155,110.417908,292.993439,93.326630,78.793259,310.332214,72.246468,46.063511
115,0,116.539810,174.094833,123.038879,250.011002,116.380966,110.406723,292.974243,93.311668,78.756531,310.333160,72.243256,46.043476
116,0,116.539352,174.078064,123.052757,250.012909,116.363861,110.390396,292.987274,93.288460,78.761620,310.319794,72.243103,45.974541
117,0,116.555099,174.076004,123.037376,250.010818,116.341591,110.382088,293.012390,93.298409,78.724739,310.370453,72.193192,45.997013
118,0,116.563324,174.046021,123.084084,250.013474,116.334717,110.356697,293.013397,93.264992,78.725151,310.349701,72.204681,45.973709
119,0,116.598358,174.032196,123.009735,250.048691,116.320961,110.322464,293.033081,93.272690,78.681465,310.384644,72.216995,45.900375
120,0,116.581383,174.027512,123.006325,250.043121,116.288391,110.298363,293.064209,93.244118,78.659554,310.412384,72.214691,45.882137
121,0,116.602104,173.994843,123.022560,250.086014,116.307411,110.291428,293.078705,93.255531,78.641014,310.409271,72.199120,45.899197
122,0,116.616806,173.943542,122.994675,250.081482,116.293709,110.301437,293.067261,93.255089,78.638069,310.362823,72.240738,45.870846
123,0,116.614113,173.971497,123.007996,250.082550,116.283058,110.310715,293.056763,93.261917,78.640686,310.386047,72.212456,45.874916
124,0,116.611214,174.007965,123.037590,250.054779,116.280777,110.322037,293.061768,93.244255,78.652786,310.401917,72.182655,45.874367
125,0,116.583961,173.994888,123.053520,250.019104,116.291458,110.325356,293.029510,93.257530,78.707253,310.382080,72.194916,45.946621
126,0,116.572853,173.957779,123.035088,250.024231,116.294548,110.332695,293.033234,93.249756,78.702942,310.409821,72.181885,45.959885
127,0,116.566490,174.000443,123.053978,249.996521,116.281029,110.343025,292.998352,93.245636,78.730896,310.369690,72.155869,45.979702
128,0,116.579659,174.015808,123.017494,249.997650,116.304459,110.359238,293.001099,93.247559,78.729919,310.366150,72.157745,46.008026
129,0,116.561157,174.034988,123.049362,249.984940,116.289879,110.370483,292.990021,93.240440,78.749001,310.353210,72.159698,46.007950
130,0,116.537285,174.042831,123.013695,249.989899,116.312981,110.380966,292.998718,93.232880,78.733315,310.372223,72.140945,46.022812
131,0,116.532310,174.047058,123.028526,249.988647,116.305641,110.381401,292.986450,93.245720,78.760071,310.326691,72.164001,45.999035
132,0,116.532616,174.013275,123.008232,249.994858,116.318474,110.363449,292.991486,93.244446,78.737762,310.366882,72.171257,45.996807
133,0,116.534904,174.026932,123.043404,250.001038,116.329895,110.351189,293.003235,93.262634,78.735580,310.360748,72.172234,45.990864
134,0,116.544029,174.001511,123.002754,250.005936,116.316101,110.361809,292.991394,93.277122,78.724068,310.385834,72.214043,45.978199
135,0,116.556305,173.993973,123.010002,250.005539,116.320801,110.346001,293.007385,93.286926,78.730469,310.402466,72.223381,45.983696
136,0,116.542213,173.995255,123.011421,249.997375,116.320648,110.346184,293.018707,93.299675,78.720886,310.400024,72.219513,45.981640
137,0,116.541534,173.980972,123.025124,250.001694,116.307899,110.362907,292.996124,93.287079,78.731422,310.350220,72.247910,45.968147
138,0,116.525810,173.990494,123.026031,249.984924,116.311127,110.363503,292.999939,93.281548,78.734840,310.370728,72.218018,46.001789
139,0,116.512009,173.984024,122.994408,249.983017,116.312141,110.374985,292.997040,93.277138,78.734123,310.388611,72.185966,46.016323
140,0,116.535828,173.989670,123.028847,249.979599,116.314728,110.372536,292.980865,93.260155,78.768303,310.340271,72.197464,46.028378
141,0,116.507797,173.999176,123.029869,249.988586,116.308479,110.397408,292.983582,93.256111,78.774261,310.346039,72.168846,46.025414
142,0,116.504143,174.009598,123.028694,249.966537,116.290863,110.405426,292.974792,93.247101,78.783867,310.347961,72.168953,46.053719
143,0,116.504639,174.009094,123.027504,249.954437,116.270538,110.393219,292.976624,93.240807,78.784744,310.316833,72.185837,46.066315
144,0,116.497803,173.992203,122.996384,249.937485,116.275764,110.406013,292.960968,93.225006,78.776543,310.325806,72.158958,46.086811
145,0,116.488876,174.006073,123.025627,249.947220,116.285606,110.400276,292.955414,93.213120,78.791649,310.359680,72.144783,46.096287
146,0,116.506386,173.990814,123.006317,249.941147,116.268806,110.383080,292.979828,93.213593,78.782188,310.344971,72.133553,46.071674
147,0,116.493919,174.001312,123.020775,249.971390,116.274948,110.388245,292.979248,93.220512,78.781021,310.371552,72.120964,46.096165
148,0,116.528763,173.968857,123.015831,249.978714,116.275436,110.394066,292.990173,93.225243,78.775063,310.357300,72.123924,46.096443
149,0,116.547104,173.984161,123.018166,249.970825,116.265259,110.381226,292.994263,93.233482,78.770378,310.396698,72.125191,46.071880
150,0,116.547127,173.978928,123.013596,249.986496,116.272285,110.381340,292.993500,93.225410,78.769447,310.389160,72.158455,46.052494
151,0,116.550392,173.972336,122.991959,249.990967,116.271629,110.371300,292.994781,93.239090,78.763519,310.416321,72.160316,46.055687
152,0,116.557617,173.987595,123.017868,249.995209,116.291473,110.378944,292.994598,93.239227,78.783195,310.370239,72.188087,46.050835
153,0,116.567368,173.940079,122.986191,250.004654,116.295616,110.393585,292.999817,93.259377,78.783913,310.385010,72.218636,46.050575
154,0,116.555443,173.995728,122.999130,250.003128,116.295593,110.388191,293.004791,93.262871,78.786705,310.399109,72.193359,46.067970
155,0,116.555809,173.978546,122.981415,250.008041,116.299080,110.387001,293.006226,93.267395,78.826813,310.413513,72.177414,46.111183
156,0,116.567604,173.993500,123.007347,250.008698,116.300781,110.400620,293.019409,93.246986,78.830635,310.424225,72.143776,46.128571
157,0,116.559952,173.982437,123.001465,250.001556,116.296638,110.402809,293.031342,93.264931,78.842728,310.438171,72.136375,46.135323
158,0,116.563324,174.002472,123.021194,250.001221,116.292526,110.403999,293.040375,93.266983,78.862701,310.443695,72.121628,46.169071
159,0,116.563644,173.973679,122.989182,249.995789,116.284035,110.434624,293.058075,93.244080,78.868217,310.466248,72.077194,46.162964
160,0,116.574844,174.006256,123.027252,249.991028,116.279541,110.434517,293.045898,93.249725,78.872322,310.440247,72.097145,46.210377
161,0,116.553078,174.020813,123.040062,249.985306,116.299080,110.439148,293.060730,93.256981,78.894562,310.458557,72.085915,46.215118
162,0,116.568565,174.014771,123.004662,249.997711,116.295822,110.443275,293.048309,93.252831,78.889999,310.425781,72.144112,46.207405
163,0,116.547630,174.006134,122.994995,249.983200,116.299004,110.442505,293.055054,93.257751,78.882393,310.471069,72.113602,46.223949
164,0,116.544403,173.988663,123.006531,249.986572,116.305733,110.443146,293.037140,93.274628,78.879898,310.438049,72.145210,46.202442
165,0,116.514847,174.012177,122.987778,249.986511,116.312668,110.443398,293.047089,93.282837,78.885277,310.454681,72.145348,46.191494
166,0,116.553429,173.993637,122.979446,250.001343,116.309647,110.445709,293.033600,93.281036,78.871803,310.469910,72.128639,46.201607
167,0,116.554733,173.976135,122.989281,249.957504,116.317909,110.432877,293.016357,93.257339,78.873169,310.421875,72.167511,46.184834
168,0,116.549248,173.966843,122.994766,249.968002,116.290085,110.444695,293.041962,93.272026,78.878181,310.464020,72.122444,46.215137
169,0,116.555481,173.984192,123.013596,249.975159,116.303581,110.417389,293.027802,93.286415,78.860794,310.463928,72.126503,46.215149
170,0,116.542343,173.981979,122.975121,249.990982,116.309776,110.407982,293.034149,93.279259,78.863670,310.472534,72.115181,46.212761
171,0,116.538269,173.946564,122.957886,249.978699,116.310852,110.412979,293.015594,93.263306,78.858719,310.445526,72.148125,46.177856
172,0,116.533539,173.964249,122.969864,249.958237,116.309502,110.400009,293.021912,93.246765,78.852898,310.430786,72.133194,46.175739
173,0,116.525688,173.968796,122.975723,249.968750,116.296928,110.419319,292.998596,93.262909,78.858681,310.442139,72.144348,46.184780
174,0,116.520958,173.959152,122.980118,249.962677,116.308846,110.415321,293.013977,93.278030,78.873787,310.460510,72.111061,46.204266
175,0,116.516869,173.971619,122.971443,249.946091,116.292610,110.420143,293.016449,93.279289,78.871315,310.452515,72.124710,46.234249
176,0,116.502151,173.955002,122.957916,249.934479,116.320587,110.434875,293.015808,93.269989,78.885925,310.439972,72.124252,46.256191
177,0,116.518173,173.931992,122.968842,249.919144,116.310120,110.446465,293.018768,93.277794,78.927124,310.468414,72.107086,46.277176
178,0,116.532631,173.923355,122.979935,249.939392,116.311798,110.474655,293.016113,93.254196,78.937737,310.415375,72.146729,46.294571
179,0,116.532188,173.928238,122.989624,249.927582,116.302483,110.474892,293.012329,93.247169,78.936913,310.429718,72.137642,46.301659
180,0,116.514786,173.943939,122.966911,249.932907,116.298393,110.487083,293.016724,93.250046,78.960831,310.461517,72.079849,46.333916
181,0,116.537872,173.925812,122.969818,249.920395,116.315231,110.495560,293.022888,93.249481,78.952682,310.457458,72.124413,46.317959
182,0,116.532677,173.917130,122.967087,249.940262,116.299416,110.478493,293.020355,93.257904,78.931129,310.437988,72.110115,46.302422
183,0,116.529030,173.934784,122.985764,249.934616,116.300270,110.480927,293.002716,93.239380,78.939491,310.461853,72.111992,46.308487
184,0,116.502167,173.968552,122.982613,249.949661,116.276642,110.487465,293.019226,93.225616,78.948708,310.483704,72.108162,46.296188
185,0,116.525452,173.932266,122.967873,249.942734,116.273872,110.461296,293.025330,93.245438,78.929253,310.494354,72.101509,46.302242
186,0,116.528427,173.912399,122.949669,249.938156,116.276360,110.452438,293.009125,93.239716,78.924133,310.470917,72.110580,46.267002
187,0,116.530579,173.911407,122.966019,249.936172,116.282928,110.465881,293.023865,93.229614,78.921349,310.468292,72.120140,46.301826
188,0,116.521790,173.903900,122.972977,249.922989,116.297943,110.466949,293.016937,93.228004,78.951401,310.441223,72.109695,46.287865
189,0,116.507278,173.896240,122.975410,249.904404,116.268448,110.470192,293.002533,93.236496,78.947472,310.426331,72.116241,46.284363
190,0,116.480110,173.912399,123.004936,249.893280,116.256485,110.462105,292.983246,93.197716,78.949188,310.397675,72.095581,46.280064
191,0,116.476418,173.919846,122.983185,249.900574,116.262863,110.487137,292.971313,93.185165,78.960220,310.394714,72.062325,46.307213
192,0,116.503929,173.925858,123.008057,249.886520,116.258850,110.477722,292.975952,93.187119,78.959000,310.388550,72.068558,46.313606
193,0,116.499603,173.942276,122.965309,249.898270,116.269417,110.485443,292.992218,93.202118,78.967430,310.392059,72.060745,46.337025
194,0,116.519478,173.924683,122.966072,249.904541,116.277504,110.479301,292.983978,93.189796,78.973152,310.424286,72.002388,46.344372
195,0,116.528961,173.913406,122.966354,249.931961,116.270226,110.499512,293.007538,93.187294,78.969093,310.445679,72.036095,46.360687
196,0,116.528603,173.909424,122.956352,249.934128,116.278465,110.509247,293.015045,93.185059,78.974503,310.451019,72.037201,46.355934
197,0,116.542206,173.863403,122.967804,249.956894,116.257767,110.535027,293.028503,93.175629,78.989502,310.498322,72.008385,46.365158
198,0,116.541420,173.857254,122.977386,249.966766,116.247536,110.514656,293.028839,93.173531,79.000954,310.565033,72.008629,46.395878
199,0,116.531731,173.874649,122.956627,249.948334,116.246513,110.527412,293.029175,93.172195,79.015472,310.504608,72.044899,46.397148
200,0,116.554482,173.838898,122.970406,249.934677,116.255295,110.523956,293.023987,93.191536,79.009132,310.530853,72.037796,46.385830
201,0,116.534447,173.829880,122.954697,249.928848,116.245659,110.515999,293.022797,93.183258,79.009514,310.495667,72.041031,46.404629
202,0,116.521667,173.809006,122.959610,249.918457,116.249374,110.530731,292.994873,93.206909,79.029434,310.519012,72.049278,46.421352
203,0,116.526421,173.858490,122.976921,249.899445,116.246620,110.552002,292.994080,93.199677,79.029381,310.466766,72.027031,46.443298
204,0,116.475807,173.873581,122.979889,249.877762,116.254639,110.539040,292.989594,93.195114,79.032333,310.426697,72.029343,46.426693
205,0,116.475479,173.919907,122.977974,249.866333,116.251526,110.535484,292.955841,93.167442,79.044090,310.443817,72.007912,46.445812
206,0,116.431847,174.002243,123.008064,249.854065,116.269157,110.560921,292.940399,93.197624,79.058624,310.456940,72.014374,46.467319
207,0,116.439186,173.952896,123.005165,249.831589,116.296066,110.558472,292.942993,93.203842,79.081413,310.468567,72.005760,46.468590
208,0,116.421158,173.996628,123.010284,249.826614,116.323029,110.598495,292.940796,93.235085,79.110962,310.441620,72.038010,46.506355
209,0,116.383125,174.045181,123.036293,249.822571,116.340485,110.599846,292.910156,93.256653,79.121063,310.469055,72.087364,46.526432
210,0,116.405121,174.020569,123.027924,249.836075,116.359238,110.603973,292.912628,93.284920,79.124710,310.490845,72.081223,46.544254
211,0,116.391754,174.035599,123.035194,249.835922,116.361115,110.609459,292.926208,93.320992,79.116226,310.500305,72.122101,46.534622
212,0,116.404022,174.013702,123.022644,249.843399,116.366089,110.601585,292.934906,93.326050,79.110672,310.431824,72.197617,46.509171
213,0,116.414238,173.983383,123.000298,249.840942,116.356941,110.587791,292.950684,93.328636,79.109894,310.487305,72.128807,46.522938
214,0,116.403282,173.989029,123.027519,249.836716,116.359756,110.581032,292.952789,93.318336,79.097794,310.482422,72.153336,46.484695
215,0,116.393089,173.979431,123.021118,249.838943,116.332573,110.591904,292.956421,93.301140,79.090538,310.501343,72.114052,46.491806
216,0,116.426643,173.893890,123.009125,249.842453,116.302490,110.588905,292.975403,93.262207,79.082123,310.486084,72.107857,46.489403
217,0,116.434845,173.883713,123.008888,249.845505,116.261208,110.557358,292.938873,93.251526,79.101578,310.457489,72.088226,46.475590
218,0,116.442978,173.891006,122.992355,249.841370,116.259262,110.548241,292.924561,93.197571,79.070274,310.456970,72.018425,46.467381
219,0,116.403618,173.862610,122.989639,249.830322,116.228760,110.531601,292.911743,93.181099,79.056061,310.471649,71.999290,46.453350
220,0,116.459198,173.803177,122.986099,249.826797,116.204987,110.537918,292.927490,93.161552,79.046127,310.408020,72.001907,46.434315
221,0,116.456589,173.803131,122.973656,249.827545,116.183189,110.522438,292.906342,93.117981,79.052620,310.408478,71.982071,46.448151
222,0,116.444946,173.806610,122.995537,249.811157,116.159637,110.510071,292.892426,93.119217,79.039581,310.436218,71.968071,46.425415
223,0,116.443672,173.774918,122.968773,249.807587,116.148903,110.489845,292.928192,93.100159,79.020905,310.408875,71.960327,46.430153
224,0,116.443481,173.756638,122.966507,249.814301,116.136177,110.495621,292.879761,93.053596,79.010262,310.342255,71.979202,46.392799
225,0,116.476883,173.743729,122.991646,249.826233,116.091476,110.482651,292.885468,93.053276,79.004204,310.381470,71.959900,46.374809
226,0,116.488640,173.713364,122.962585,249.830246,116.088707,110.483002,292.908112,93.040741,78.995041,310.388702,71.976936,46.375713
227,0,116.498749,173.730865,122.972763,249.842133,116.084686,110.473213,292.904510,93.046730,78.968803,310.329865,72.003860,46.353821
228,0,116.496605,173.698669,122.937027,249.840637,116.066505,110.480286,292.916748,93.052383,78.967590,310.394501,71.943985,46.351372
229,0,116.491158,173.712158,122.965248,249.845016,116.073555,110.470787,292.918365,93.063515,78.980675,310.429138,71.937195,46.348145
230,0,116.484047,173.721359,122.960464,249.832047,116.083626,110.446732,292.935333,93.054955,78.973892,310.350250,72.016006,46.341816
231,0,116.490753,173.719391,122.956451,249.826675,116.085579,110.446098,292.920258,93.055435,78.967644,310.366394,71.963661,46.315964
232,0,116.468422,173.720169,122.966110,249.817856,116.078613,110.429787,292.906921,93.066635,78.961838,310.308502,72.014854,46.310749
233,0,116.483307,173.693130,122.968834,249.819794,116.074753,110.450096,292.880493,93.040764,78.985390,310.384888,71.950531,46.371185
234,0,116.462173,173.718170,122.983200,249.819412,116.077309,110.448730,292.886261,93.046196,78.964592,310.340485,71.984337,46.334347
235,0,116.450470,173.727722,122.981163,249.808426,116.069290,110.430763,292.875305,93.025635,78.970398,310.296722,71.982468,46.346088
236,0,116.454254,173.712570,122.962456,249.804932,116.066284,110.445808,292.869171,93.026352,78.985924,310.300537,71.946411,46.355114
237,0,116.471771,173.724533,122.975365,249.785217,116.069450,110.471603,292.863464,93.021774,78.976723,310.314545,71.953781,46.332241
238,0,116.480141,173.665283,122.940926,249.803711,116.065887,110.434631,292.870544,92.998543,78.951195,310.332550,71.925407,46.336662
239,0,116.458282,173.697601,122.930435,249.788879,116.058319,110.441681,292.871460,93.010338,78.973969,310.277252,71.986458,46.349594
240,0,116.446671,173.676483,122.942131,249.791565,116.048264,110.438530,292.880371,93.004303,78.971985,310.274841,71.964317,46.345554
241,0,116.462196,173.687836,122.929771,249.787323,116.045761,110.437202,292.867462,93.012016,78.980988,310.329437,71.915115,46.369419
242,0,116.467316,173.685135,122.955215,249.810974,116.030174,110.470238,292.870422,93.020233,78.991875,310.347626,71.922997,46.339439
243,0,116.465446,173.679916,122.935600,249.806793,116.029602,110.461357,292.883270,92.998299,78.988304,310.313080,71.964737,46.355305
244,0,116.458603,173.671310,122.942146,249.817047,116.036240,110.460159,292.896271,93.013344,78.979530,310.406006,71.891182,46.390705
245,0,116.479759,173.677734,122.947266,249.812317,116.027359,110.472542,292.882416,93.004166,79.000832,310.396637,71.904999,46.374603
246,0,116.482651,173.671600,122.948090,249.809555,116.035965,110.472672,292.884613,92.987518,79.017494,310.307953,71.988899,46.361675
247,0,116.468903,173.687027,122.968941,249.802109,116.055023,110.476830,292.890564,93.019058,79.026810,310.416687,71.894646,46.414986
248,0,116.473961,173.691299,122.975075,249.798264,116.040337,110.505943,292.857910,93.009521,79.011841,310.438110,71.880913,46.432213
249,0,116.449875,173.678970,122.961349,249.795959,116.037094,110.498955,292.873932,93.034370,79.013336,310.364990,71.883331,46.412083
250,0,116.471054,173.692017,122.954811,249.797867,116.039169,110.498009,292.865601,93.006554,79.024704,310.366760,71.862144,46.414860
251,0,116.469223,173.716675,122.964554,249.801880,116.022255,110.492455,292.871124,92.976730,79.010193,310.389954,71.851067,46.424133
252,0,116.437576,173.736633,122.966705,249.808380,116.018341,110.508392,292.882599,92.982620,79.011879,310.386963,71.867363,46.417934
253,0,116.486519,173.688629,122.950096,249.801651,116.020218,110.504860,292.885101,92.975899,79.020287,310.344360,71.909134,46.399117
254,0,116.475761,173.662979,122.944405,249.804077,116.014114,110.492111,292.874756,92.966133,79.015327,310.399475,71.832817,46.416687
255,0,116.499802,173.644043,122.948189,249.808105,116.005035,110.478897,292.888672,92.964455,79.019669,310.435486,71.801010,46.444828
256,0,116.492935,173.661407,122.961105,249.792709,115.996628,110.496704,292.889832,92.965790,79.015251,310.414429,71.846848,46.429165
257,0,116.485313,173.668365,122.956535,249.797256,115.994263,110.502373,292.889160,92.966240,79.024925,310.407379,71.852570,46.435467
258,0,116.466370,173.647552,122.941170,249.803741,116.002640,110.481224,292.882935,92.963028,79.023987,310.430359,71.819695,46.444363
259,0,116.470734,173.636841,122.953659,249.792816,115.991638,110.485718,292.881012,92.959328,79.028038,310.446808,71.803154,46.461826
260,0,116.484238,173.618225,122.954536,249.794754,115.976349,110.506683,292.871948,92.926064,79.022003,310.347626,71.858963,46.429047
261,0,116.507950,173.642609,122.956688,249.787628,115.965439,110.499786,292.878571,92.923386,79.019012,310.381226,71.825157,46.431152
262,0,116.494713,173.575546,122.949677,249.809479,115.958527,110.488426,292.879456,92.924377,79.012177,310.382385,71.833115,46.433163
263,0,116.523399,173.540955,122.924316,249.806992,115.958977,110.484428,292.888397,92.930153,79.020660,310.368622,71.825073,46.408665
264,0,116.505409,173.606293,122.944580,249.799271,115.957581,110.491341,292.862640,92.943573,78.984100,310.323151,71.861671,46.401741
265,0,116.503777,173.600876,122.938400,249.796280,115.961311,110.477501,292.872314,92.914078,79.007896,310.394043,71.778557,46.426483
266,0,116.503235,173.599396,122.934372,249.796570,115.959808,110.493912,292.876587,92.916000,79.030586,310.369507,71.801903,46.413139
267,0,116.488205,173.615997,122.926834,249.785812,115.955261,110.503654,292.885406,92.917198,79.051048,310.379486,71.796768,46.436623
268,0,116.468590,173.602829,122.930817,249.787094,115.955025,110.497040,292.871643,92.907585,79.026794,310.339569,71.817078,46.442471
269,0,116.459908,173.594086,122.919502,249.779083,115.965706,110.487595,292.879089,92.926254,79.032906,310.371094,71.796127,46.447548
270,0,116.453506,173.559128,122.912674,249.774612,115.955147,110.505814,292.873047,92.901154,79.066895,310.311676,71.878212,46.426956
271,0,116.479103,173.600052,122.932365,249.778824,115.952576,110.511047,292.878998,92.904358,79.083054,310.346558,71.854965,46.456226
272,0,116.470329,173.602264,122.940163,249.786499,115.947395,110.503258,292.855591,92.939072,79.068398,310.374573,71.820442,46.464317
273,0,116.481232,173.560776,122.906487,249.776672,115.938499,110.523834,292.853943,92.893211,79.053024,310.312469,71.838142,46.489288
274,0,116.450470,173.576996,122.912575,249.777893,115.919876,110.519287,292.858765,92.900436,79.068054,310.396606,71.733376,46.460285
275,0,116.471725,173.564423,122.917656,249.788239,115.926254,110.510651,292.846252,92.885658,79.050896,310.367584,71.791283,46.474155
276,0,116.467171,173.534393,122.927979,249.776718,115.916603,110.522156,292.848083,92.867714,79.062286,310.375824,71.788681,46.461311
277,0,116.461891,173.546600,122.939590,249.757675,115.910919,110.521736,292.828278,92.838753,79.074432,310.337067,71.769722,46.452499
278,0,116.434311,173.539825,122.902695,249.753082,115.909073,110.507019,292.775604,93.045708,78.949806,310.329407,71.764015,46.456749
279,0,116.427071,173.558899,122.915138,249.735748,115.919533,110.504745,292.800842,92.922783,79.018501,310.311981,71.789093,46.449596
280,0,116.463615,173.515137,122.898460,249.729019,115.916191,110.497437,292.773804,92.937401,79.028969,310.366852,71.796387,46.481327
281,0,116.433800,173.521271,122.911110,249.742477,115.918869,110.524734,292.789612,92.948242,79.039253,310.336304,71.786644,46.488537
282,0,116.436119,173.563431,122.929543,249.723846,115.920006,110.545349,292.773102,92.938950,79.062737,310.267181,71.842216,46.492096
283,0,116.444221,173.565887,122.922928,249.714920,115.934341,110.536964,292.797424,92.939758,79.062569,310.331696,71.767769,46.537895
284,0,116.449707,173.570724,122.939125,249.729279,115.937347,110.548157,292.798859,92.957436,79.073830,310.385223,71.755409,46.530682
285,0,116.461815,173.579086,122.911201,249.729065,115.978523,110.564125,292.820740,92.958038,79.113289,310.358337,71.791550,46.540207
286,0,116.456886,173.542130,122.919846,249.738541,115.979683,110.557655,292.798615,92.956100,79.109390,310.337585,71.854103,46.534893
287,0,116.428650,173.531158,122.936661,249.715729,115.973068,110.554771,292.813873,92.974709,79.106964,310.434052,71.765205,46.569683
288,0,116.451569,173.545547,122.917076,249.718124,115.980103,110.566460,292.811523,92.973961,79.103722,310.407745,71.811600,46.557396
289,0,116.441696,173.557449,122.900398,249.731277,115.979622,110.563255,292.837250,92.981987,79.107368,310.364532,71.850609,46.522221
290,0,116.449287,173.583221,122.919853,249.757004,116.000237,110.553032,292.827026,92.986275,79.098846,310.444397,71.759682,46.558212
291,0,116.445831,173.567261,122.950500,249.747787,115.991745,110.560577,292.845490,92.965469,79.117622,310.469849,71.764946,46.575371
292,0,116.457367,173.587799,122.926300,249.741608,115.989220,110.557594,292.842712,92.952484,79.130775,310.349487,71.866600,46.523918
293,0,116.468987,173.574600,122.913727,249.747513,115.988358,110.570908,292.834656,92.965027,79.110863,310.378235,71.825569,46.534451
294,0,116.459557,173.548523,122.918587,249.725143,115.966499,110.551041,292.821625,92.933495,79.136581,310.378632,71.807167,46.539143
295,0,116.448158,173.557434,122.927711,249.730911,115.970848,110.561317,292.799316,92.936584,79.108093,310.304077,71.838966,46.530083
296,0,116.424980,173.555817,122.910187,249.699265,115.962822,110.555511,292.763489,92.931129,79.113884,310.277557,71.829796,46.535572
297,0,116.412949,173.622787,122.920311,249.678452,115.957993,110.578003,292.764160,92.914268,79.119019,310.305115,71.793228,46.557705
298,0,116.396965,173.580200,122.930641,249.658417,115.979111,110.590797,292.707764,93.082115,79.056190,310.345154,71.759972,46.592949
299,0,116.404167,173.601593,122.931099,249.656738,115.976807,110.592430,292.745331,92.959572,79.147316,310.269318,71.832535,46.607151
300,0,116.395149,173.637711,122.947762,249.665970,115.988533,110.597740,292.772156,92.973251,79.166077,310.356476,71.754333,46.639423
301,0,116.417603,173.648697,122.928719,249.715820,115.998688,110.626610,292.778381,92.989746,79.176208,310.297089,71.803543,46.633842
302,0,116.428947,173.656937,122.953743,249.708954,116.003258,110.626663,292.807281,92.987503,79.185104,310.392334,71.772835,46.664837
303,0,116.446968,173.616440,122.937462,249.743515,116.004341,110.651146,292.817352,92.996964,79.192871,310.401794,71.814590,46.677345
304,0,116.441071,173.608276,122.930725,249.733841,116.007683,110.642105,292.831635,93.003044,79.201195,310.474091,71.798889,46.685051
305,0,116.449905,173.601685,122.929451,249.745056,116.008781,110.645966,292.839417,92.999596,79.200981,310.464661,71.793465,46.660927
306,0,116.450134,173.597763,122.910873,249.753922,116.014938,110.642075,292.836121,92.998398,79.205040,310.444794,71.816628,46.674469
307,0,116.420593,173.597687,122.945526,249.736130,116.001526,110.643402,292.825806,93.022934,79.201973,310.473480,71.800072,46.698719
308,0,116.429550,173.585175,122.921768,249.726807,116.017426,110.637291,292.821228,93.010681,79.207924,310.357269,71.920418,46.660633
309,0,116.396797,173.620285,122.945190,249.710815,116.023430,110.633705,292.811340,92.997887,79.212532,310.414154,71.818977,46.686157
310,0,116.403297,173.661453,122.941208,249.699905,116.049492,110.652359,292.788635,92.985168,79.213486,310.395538,71.797455,46.707531
311,0,116.338409,173.731140,122.958992,249.675034,116.066765,110.651321,292.740845,92.998077,79.236580,310.356812,71.829704,46.721252
312,0,116.357445,173.724106,122.947624,249.663239,116.076088,110.625221,292.738312,92.997360,79.258217,310.365601,71.814888,46.727467
313,0,116.351768,173.751205,122.949997,249.669067,116.075974,110.647743,292.748169,93.020889,79.234993,310.358521,71.833527,46.725021
314,0,116.345734,173.760361,122.931442,249.674774,116.097809,110.645599,292.759674,93.034676,79.250320,310.357117,71.850281,46.726009
315,0,116.343979,173.767731,122.944183,249.655807,116.110657,110.651375,292.770996,93.067680,79.263451,310.350891,71.882256,46.733395
316,0,116.325439,173.783920,122.941147,249.655518,116.110497,110.653305,292.755463,93.080589,79.255157,310.378052,71.876617,46.748749
317,0,116.330139,173.744156,122.945168,249.659088,116.116684,110.679855,292.768127,93.109779,79.260048,310.368317,71.927620,46.742283
318,0,116.312401,173.751709,122.965645,249.658127,116.110954,110.652756,292.781738,93.083229,79.274643,310.358002,71.947372,46.720135
319,0,116.312111,173.723862,122.957832,249.652969,116.111519,110.646553,292.779327,93.101311,79.257103,310.415100,71.896790,46.726730
320,0,116.320175,173.673355,122.941223,249.649109,116.093987,110.633995,292.778412,93.098221,79.249672,310.399445,71.891945,46.725174
321,0,116.319344,173.682358,122.944191,249.639389,116.080856,110.635170,292.756195,93.067131,79.242897,310.377014,71.882607,46.724293
322,0,116.317101,173.697220,122.951599,249.655334,116.062347,110.616333,292.755463,93.030991,79.239983,310.372223,71.869629,46.706764
323,0,116.312881,173.702164,122.953308,249.646057,116.066483,110.630280,292.727386,93.034874,79.226883,310.346710,71.861687,46.691940
324,0,116.320724,173.665466,122.938675,249.618423,116.025780,110.624954,292.718781,93.005493,79.212685,310.285553,71.870255,46.680988
325,0,116.314835,173.659897,122.921410,249.606796,116.005539,110.629326,292.728760,92.958527,79.224442,310.347687,71.795532,46.689777
326,0,116.322754,173.606415,122.912674,249.618103,115.963760,110.615074,292.693268,93.084274,79.112419,310.349243,71.754333,46.676037
327,0,116.309372,173.625946,122.930054,249.617584,115.948570,110.612885,292.716003,92.944565,79.184433,310.243530,71.852013,46.640835
328,0,116.316246,173.597275,122.927666,249.614914,115.919868,110.585716,292.720795,92.911964,79.184235,310.264679,71.830711,46.634613
329,0,116.327469,173.556335,122.930565,249.643234,115.884941,110.567230,292.713715,92.914818,79.136887,310.259796,71.802864,46.600121
330,0,116.353165,173.538910,122.922722,249.643723,115.864830,110.565002,292.695801,93.013985,79.037018,310.299255,71.749687,46.575447
331,0,116.373680,173.516861,122.903915,249.650513,115.853912,110.553909,292.726746,92.877510,79.104515,310.257629,71.792679,46.537472
332,0,116.401161,173.487778,122.903709,249.664322,115.819710,110.513535,292.744293,92.842125,79.089149,310.281219,71.761795,46.521584
333,0,116.398132,173.488129,122.900742,249.701950,115.805275,110.520470,292.764038,92.825661,79.066383,310.328247,71.710709,46.523682
334,0,116.401039,173.506882,122.912239,249.702209,115.794571,110.498093,292.753296,92.831512,79.044609,310.296906,71.735245,46.495174
335,0,116.403008,173.448090,122.882225,249.675110,115.780952,110.468910,292.732269,92.803528,79.037628,310.270721,71.716057,46.448547
336,0,116.466049,173.237137,122.690697,249.679916,115.762932,110.446877,292.721924,92.786621,79.028702,310.344421,71.626450,46.484303
337,0,116.383026,173.423355,122.854797,249.652832,115.751007,110.485489,292.724152,92.773010,79.044716,310.230225,71.750595,46.448929
338,0,116.444031,173.324936,122.707939,249.657028,115.769814,110.470657,292.712097,92.764061,79.044868,310.244934,71.722778,46.486359
339,0,116.392166,173.510391,122.856956,249.643021,115.776588,110.476959,292.701843,92.782005,79.052101,310.323181,71.644676,46.522305
340,0,116.367798,173.500641,122.853668,249.636444,115.783791,110.480003,292.713837,92.764168,79.069534,310.234680,71.731415,46.498711
341,0,116.384346,173.509155,122.888130,249.631058,115.783318,110.473106,292.709015,92.768913,79.089119,310.231659,71.733162,46.500389
342,0,116.376823,173.544388,122.877739,249.626175,115.815117,110.524513,292.692139,92.782654,79.090416,310.229919,71.746483,46.523293
343,0,116.387138,173.500397,122.860443,249.615280,115.838707,110.498558,292.701630,92.821152,79.095695,310.250641,71.707397,46.545753
344,0,116.373260,173.516174,122.863297,249.627213,115.830727,110.502914,292.716644,92.818741,79.102997,310.235657,71.748253,46.530376
345,0,116.384789,173.522873,122.877213,249.613220,115.855659,110.489799,292.730560,92.803848,79.095146,310.268036,71.768646,46.517540
346,0,116.374321,173.492554,122.876427,249.650574,115.831909,110.518860,292.718994,92.795959,79.100166,310.245850,71.785301,46.506508
347,0,116.381416,173.504654,122.885323,249.646667,115.819794,110.504112,292.734802,92.796387,79.100502,310.297882,71.728195,46.520790
348,0,116.360970,173.491501,122.884651,249.639084,115.826431,110.498123,292.713470,92.807678,79.089073,310.289276,71.766762,46.525063
349,0,116.394836,173.294632,122.712311,249.644714,115.796196,110.534531,292.731873,92.786552,79.096825,310.251068,71.796860,46.517952
350,0,116.365547,173.482834,122.874863,249.616714,115.795212,110.515305,292.750427,92.731812,79.119949,310.243591,71.756279,46.512638
351,0,116.417603,173.321045,122.715485,249.605820,115.782806,110.511024,292.691528,92.766594,79.089859,310.235870,71.751167,46.524860
352,0,116.403107,173.283295,122.704956,249.614975,115.789719,110.519913,292.712585,92.754349,79.103592,310.235260,71.750046,46.523758
353,0,116.342628,173.443359,122.866760,249.603928,115.755302,110.528328,292.681732,92.701851,79.132233,310.253632,71.680969,46.547607
354,0,116.334961,173.405731,122.851662,249.575485,115.766159,110.513344,292.664551,92.723549,79.125320,310.170776,71.699417,46.558601
355,0,116.343445,173.359177,122.840691,249.549149,115.760574,110.541801,292.630219,92.728249,79.136902,310.193665,71.680145,46.575356
356,0,116.344070,173.399551,122.848267,249.550507,115.753899,110.529793,292.644257,92.698547,79.169380,310.163116,71.699425,46.578777
357,0,116.320190,173.392410,122.840248,249.544006,115.747726,110.533638,292.600647,92.672119,79.171066,310.180206,71.703323,46.567978
358,0,116.327629,173.412842,122.862610,249.533463,115.743439,110.552551,292.619080,92.677162,79.184547,310.231201,71.590599,46.612751
359,0,116.318893,173.399292,122.869766,249.523605,115.750534,110.573303,292.649536,92.678444,79.196373,310.134247,71.701561,46.580009
360,0,116.315002,173.435089,122.895920,249.536255,115.741905,110.574799,292.648285,92.683807,79.181763,310.202118,71.673744,46.608444
361,0,116.318764,173.406311,122.883904,249.545105,115.749359,110.543747,292.636658,92.670433,79.188782,310.220337,71.660126,46.623161
362,0,116.292847,173.413544,122.885490,249.539993,115.739548,110.559464,292.648285,92.701096,79.179016,310.175323,71.699196,46.585320
363,0,116.325058,173.363373,122.878143,249.538910,115.744560,110.546288,292.657990,92.727684,79.161484,310.180756,71.699287,46.595207
364,0,116.321419,173.364670,122.897774,249.532791,115.732315,110.549820,292.652252,92.694603,79.173691,310.264221,71.616966,46.618713
365,0,116.328400,173.422272,122.874969,249.544800,115.725060,110.527657,292.653290,92.661392,79.175835,310.177368,71.689896,46.594761
366,0,116.322830,173.397461,122.861496,249.558121,115.696884,110.541451,292.628876,92.685539,79.151169,310.175476,71.687195,46.580650
367,0,116.338692,173.373596,122.872665,249.555756,115.708344,110.531975,292.619232,92.632629,79.166145,310.261871,71.594139,46.617882
368,0,116.344292,173.411514,122.878860,249.541656,115.683189,110.554710,292.645172,92.632820,79.194550,310.168549,71.665474,46.592876
369,0,116.334312,173.378693,122.895187,249.542831,115.676003,110.569191,292.623474,92.611961,79.209686,310.165314,71.598465,46.625957
370,0,116.322617,173.361191,122.884613,249.530502,115.681053,110.585365,292.633514,92.612434,79.204826,310.224670,71.548676,46.648479
371,0,116.343521,173.351852,122.893677,249.545013,115.674332,110.592773,292.634369,92.612579,79.202309,310.138550,71.621544,46.612823
372,0,116.334160,173.387802,122.867218,249.563202,115.682114,110.569008,292.640533,92.602074,79.190727,310.182983,71.569664,46.626980
373,0,116.337036,173.370743,122.863411,249.552185,115.673019,110.570206,292.651764,92.596954,79.208405,310.251648,71.554291,46.648941
374,0,116.359665,173.348816,122.871880,249.564926,115.659874,110.562119,292.624939,92.581825,79.204140,310.207214,71.594887,46.658207
375,0,116.355148,173.342194,122.861198,249.569031,115.687569,110.573105,292.642792,92.596146,79.204681,310.194336,71.621101,46.650009
376,0,116.365433,173.302505,122.850250,249.560226,115.674080,110.583412,292.638947,92.612373,79.204102,310.245972,71.501968,46.653481
377,0,116.360046,173.312195,122.864685,249.565201,115.690941,110.570625,292.615631,92.590370,79.201965,310.268463,71.537712,46.631256
378,0,116.358398,173.324203,122.869019,249.562378,115.684494,110.589928,292.628052,92.602966,79.207771,310.225861,71.612885,46.662922
379,0,116.350952,173.325150,122.868698,249.547134,115.686249,110.596718,292.638336,92.603195,79.227150,310.199615,71.612984,46.656498
380,0,116.342781,173.342819,122.898544,249.546158,115.685783,110.596603,292.624481,92.593147,79.213692,310.204132,71.631416,46.674648
381,0,116.350304,173.339462,122.862518,249.541702,115.681480,110.587112,292.622131,92.601921,79.193878,310.155548,71.625221,46.644627
382,0,116.325706,173.343094,122.836937,249.508759,115.698273,110.592438,292.611481,92.598213,79.214455,310.131226,71.637573,46.617371
383,0,116.346870,173.368134,122.850670,249.524338,115.700523,110.613609,292.622498,92.599030,79.216118,310.174805,71.599838,46.655495
384,0,116.292488,173.381790,122.874214,249.526230,115.701408,110.611198,292.629364,92.605972,79.215431,310.179138,71.620506,46.659599
385,0,116.335556,173.355560,122.846779,249.523132,115.712402,110.615387,292.656738,92.624069,79.252625,310.188599,71.646484,46.717396
386,0,116.286476,173.402466,122.859818,249.522217,115.722130,110.636993,292.653046,92.630119,79.269203,310.172638,71.651451,46.701832
387,0,116.311966,173.415665,122.878014,249.550842,115.752113,110.636581,292.652069,92.657158,79.293419,310.184235,71.647446,46.697952
388,0,116.289299,173.440170,122.885094,249.533524,115.749123,110.644791,292.659882,92.653862,79.281395,310.241943,71.609116,46.747490
389,0,116.271423,173.442429,122.885506,249.541656,115.753471,110.647842,292.650116,92.655106,79.310661,310.285095,71.583427,46.755344
390,0,116.298157,173.424911,122.886307,249.530075,115.745392,110.645096,292.645813,92.700356,79.285660,310.254150,71.612206,46.777130
391,0,116.302254,173.410843,122.902344,249.536438,115.752243,110.643845,292.653625,92.660179,79.306366,310.272186,71.626945,46.745003
392,0,116.290573,173.395645,122.850449,249.526367,115.755852,110.641335,292.647736,92.666809,79.292778,310.273407,71.639938,46.747860
393,0,116.287300,173.393906,122.851776,249.557220,115.774849,110.647362,292.638336,92.704018,79.263504,310.225311,71.664703,46.746902
394,0,116.277115,173.404861,122.849777,249.526978,115.743347,110.617104,292.646729,92.679611,79.272141,310.158752,71.722565,46.734188
395,0,116.278099,173.406921,122.862389,249.523300,115.751579,110.643799,292.637207,92.659142,79.289047,310.202087,71.639275,46.734703
396,0,116.250580,173.410217,122.892899,249.496643,115.721031,110.643951,292.578735,92.653839,79.304718,310.179169,71.674011,46.751415
397,0,116.234734,173.427383,122.892815,249.495880,115.715057,110.643723,292.579285,92.638634,79.311127,310.131195,71.658478,46.756287
398,0,116.233032,173.435165,122.875725,249.470367,115.720154,110.663513,292.560120,92.614815,79.304291,310.156219,71.624619,46.781147
399,0,116.226501,173.407578,122.892220,249.468567,115.719513,110.665382,292.551544,92.614105,79.332947,310.161438,71.572861,46.797981
400,0,116.237450,173.417740,122.896370,249.484711,115.692978,110.670578,292.563477,92.597038,79.334412,310.164917,71.602646,46.820095
401,0,116.271568,173.422729,122.881668,249.481598,115.709419,110.679062,292.582001,92.616600,79.344360,310.191742,71.558311,46.829182
402,0,116.252502,173.411911,122.864624,249.491318,115.727127,110.678032,292.603210,92.628479,79.334457,310.206970,71.582092,46.826195
403,0,116.254700,173.395203,122.867126,249.531601,115.707657,110.699440,292.622345,92.638275,79.342995,310.218048,71.580330,46.832817
404,0,116.287018,173.357346,122.866486,249.506393,115.713646,110.697525,292.625580,92.623672,79.347137,310.263092,71.545631,46.831844
405,0,116.296684,173.326630,122.872726,249.503204,115.704285,110.705765,292.626892,92.642204,79.344025,310.254181,71.602264,46.821674
406,0,116.267227,173.330841,122.904663,249.515625,115.697853,110.719185,292.641266,92.638672,79.363129,310.223785,71.626694,46.837967
407,0,116.245255,173.312195,122.884453,249.473450,115.717537,110.720200,292.602020,92.653877,79.382629,310.202057,71.636314,46.852039
408,0,116.237373,173.357788,122.879044,249.471268,115.709175,110.702759,292.574921,92.646126,79.387115,310.208862,71.586555,46.848572
409,0,116.215294,173.330124,122.887436,249.454498,115.732681,110.702950,292.564270,92.647186,79.382034,310.212585,71.583626,46.877766
410,0,116.189384,173.355865,122.923241,249.434631,115.742355,110.715057,292.541412,92.651382,79.388908,310.160980,71.636620,46.869873
411,0,116.133682,173.445496,122.931366,249.420013,115.750824,110.707382,292.488861,92.684570,79.389534,310.170654,71.608826,46.908916
412,0,116.133102,173.436935,122.898865,249.380035,115.771317,110.732887,292.465881,92.675301,79.416122,310.103210,71.627792,46.912773
413,0,116.125916,173.434647,122.887985,249.345840,115.784492,110.753784,292.445312,92.679108,79.443771,310.099701,71.614426,46.957207
414,0,116.090546,173.465637,122.904648,249.339005,115.807510,110.766006,292.433990,92.694138,79.475266,310.046509,71.699829,46.965130
415,0,116.082352,173.476852,122.943459,249.320404,115.809624,110.746399,292.423279,92.707481,79.464844,310.149536,71.632881,47.007057
416,0,116.048477,173.473984,122.958382,249.333664,115.802101,110.776031,292.430145,92.740334,79.478775,310.113892,71.671196,47.023079
417,0,116.092316,173.452850,122.921120,249.315109,115.825684,110.781113,292.431091,92.726471,79.504730,310.153320,71.652199,47.015057
418,0,116.072273,173.429123,122.907196,249.325882,115.828484,110.788612,292.441040,92.761162,79.492172,310.177734,71.682190,47.032776
419,0,116.069962,173.417206,122.936928,249.353180,115.817719,110.809174,292.463165,92.777481,79.520882,310.230652,71.631790,47.076591
420,0,116.088867,173.424026,122.922928,249.348450,115.808792,110.797539,292.450836,92.924789,79.437202,310.227936,71.665428,47.066929
421,0,116.109413,173.428665,122.914001,249.376007,115.780037,110.822495,292.489716,92.789482,79.505814,310.243408,71.629440,47.089619
422,0,116.131454,173.376205,122.874771,249.382401,115.763069,110.807480,292.496429,92.887146,79.448418,310.210175,71.640808,47.063423
423,0,116.147408,173.380630,122.900421,249.426117,115.745941,110.820869,292.502930,92.858833,79.456230,310.174225,71.671829,47.064342
424,0,116.198448,173.368652,122.891624,249.447159,115.726379,110.819809,292.552765,92.825813,79.479179,310.204254,71.639351,47.088860
425,0,116.247047,173.352127,122.890617,249.493027,115.718163,110.831177,292.635590,92.672653,79.546669,310.240570,71.641350,47.087013
426,0,116.295876,173.369720,122.883568,249.553085,115.704224,110.767906,292.628540,92.797684,79.454056,310.383606,71.528481,47.075573
427,0,116.357338,173.356522,122.856110,249.594986,115.689438,110.711815,292.689850,92.822731,79.480324,310.355072,71.675240,47.079483
428,0,116.418495,173.291168,122.825195,249.638474,115.655975,110.696297,292.772491,92.825478,79.492363,310.531311,71.625031,47.106316
429,0,116.434280,173.269379,122.848511,249.650314,115.654617,110.643394,292.802917,92.839722,79.417603,310.580658,71.639648,47.046871
430,0,116.466644,173.235794,122.817795,249.712463,115.626915,110.603821,292.824554,92.798500,79.330254,310.519562,71.685051,46.926853
431,0,116.487328,173.172424,122.808983,249.758804,115.619110,110.545280,292.903137,92.637489,79.326248,310.595642,71.632843,46.857895
432,0,116.522339,173.184128,122.796738,249.774155,115.586586,110.503052,292.912048,92.774620,79.227051,310.670959,71.605019,46.807838
433,0,116.543983,173.126053,122.796539,249.791733,115.590454,110.454132,292.929443,92.655678,79.249992,310.698059,71.632713,46.787342
434,0,116.527718,173.122818,122.821617,249.778656,115.586105,110.440384,292.911957,92.682747,79.243233,310.658234,71.627960,46.772675
435,0,116.476509,173.148880,122.837204,249.758804,115.575798,110.455292,292.882935,92.685410,79.216103,310.578644,71.671890,46.731457
436,0,116.467667,173.143661,122.827606,249.680893,115.585320,110.495567,292.839966,92.660927,79.265724,310.540039,71.672501,46.781460
437,0,116.437035,173.174683,122.812927,249.644348,115.574791,110.561859,292.800049,92.609070,79.372162,310.469604,71.632576,46.891499
438,0,116.395172,173.228317,122.812088,249.565857,115.587135,110.651421,292.778473,92.609352,79.512756,310.497955,71.555405,47.083687
439,0,116.317116,173.258881,122.803978,249.516159,115.602188,110.812485,292.734253,92.574303,79.734413,310.522064,71.502731,47.338783
440,0,116.270844,173.309769,122.821663,249.442459,115.625587,111.017654,292.711304,92.549377,80.009125,310.589966,71.349861,47.696247
441,0,116.211945,173.388748,122.840416,249.432968,115.694534,111.209099,292.696136,92.526337,80.339485,310.571960,71.354065,48.045345
442,0,116.194160,173.421555,122.829620,249.369614,115.731491,111.433502,292.687622,92.496132,80.666702,310.592865,71.304184,48.482418
443,0,116.143562,173.520264,122.867447,249.350342,115.779533,111.661186,292.685699,92.502831,81.003662,310.681793,71.222359,48.928257
444,0,116.131599,173.575806,122.948349,249.315262,115.810646,111.896065,292.639252,92.627304,81.245575,310.865570,71.065338,49.332634
445,0,116.102524,173.610306,122.966301,249.286987,115.838074,112.145683,292.671204,92.508362,81.635483,310.812683,71.085243,49.655266
446,0,116.087212,173.650574,122.999893,249.229462,115.869873,112.369423,292.702881,92.509789,81.931358,310.836487,71.042015,49.939812
447,0,116.065735,173.607407,122.994522,249.189026,115.898293,112.538567,292.730438,92.535477,82.197662,310.924408,70.907715,50.222206
448,0,116.074379,173.621216,123.024727,249.214508,115.915733,112.682350,292.722595,92.531960,82.410316,310.964569,70.889641,50.429146
449,0,116.035866,173.642349,123.075958,249.184692,115.913170,112.774910,292.744202,92.532295,82.528831,311.010834,70.929771,50.619034
450,0,116.019409,173.611115,123.089012,249.187637,115.909348,112.824677,292.735413,92.625458,82.542938,310.944275,70.998817,50.677902
451,0,116.021690,173.534714,123.062805,249.148376,115.887344,112.873924,292.742706,92.627480,82.594582,311.048218,70.946243,50.749943
452,0,116.024696,173.495819,123.070236,249.153305,115.842850,112.850357,292.751190,92.478050,82.609787,310.970978,70.947609,50.713753
453,0,116.033134,173.402390,123.029343,249.157578,115.800407,112.796669,292.740509,92.455383,82.550232,310.990875,70.859978,50.602879
454,0,116.042297,173.356827,123.051086,249.155365,115.760025,112.731186,292.717590,92.405228,82.442719,310.974518,70.840767,50.493805
455,0,116.032333,173.301163,123.007820,249.129700,115.712769,112.630608,292.685669,92.367905,82.309914,310.910004,70.823738,50.325371
456,0,116.036705,173.248764,122.968193,249.115707,115.654503,112.512779,292.652069,92.333504,82.157082,310.847534,70.793388,50.179409
457,0,116.050072,173.192642,122.953445,249.102249,115.604736,112.419250,292.607513,92.265671,82.030525,310.827301,70.779900,50.028107
458,0,116.014030,173.218262,122.977371,249.101547,115.577385,112.308586,292.583008,92.241631,81.852295,310.794434,70.784630,49.891659
459,0,115.996490,173.214584,123.037178,249.107422,115.548592,112.216904,292.508423,92.201904,81.733414,310.726868,70.795799,49.774254
460,0,116.000374,173.191864,123.014549,249.115524,115.532524,112.123985,292.482269,92.177231,81.595238,310.678101,70.815155,49.660072
461,0,115.983513,173.169037,123.018272,249.098557,115.526924,112.061165,292.474243,92.183128,81.528992,310.541473,70.910027,49.474018
462,0,115.966888,173.169449,122.989433,249.117783,115.530228,112.000900,292.460022,92.187973,81.441437,310.540375,70.920258,49.409649
463,0,115.987663,173.140106,122.998001,249.101608,115.543625,111.973007,292.465118,92.191727,81.406631,310.513947,70.984108,49.333359
464,0,115.957222,173.142502,123.018791,249.118088,115.529518,111.954536,292.451874,92.251305,81.360352,310.474762,70.991516,49.295422
465,0,115.962852,173.163315,123.030807,249.105179,115.542946,111.932983,292.460052,92.261131,81.335129,310.486542,71.059494,49.226322
466,0,115.952179,173.162186,123.021378,249.094833,115.582581,111.912567,292.480804,92.309296,81.300606,310.492401,71.090836,49.190468
467,0,115.936569,173.131409,123.009789,249.106354,115.622383,111.877243,292.492157,92.320847,81.259300,310.531769,71.138260,49.191051
468,0,115.966942,173.168076,123.017845,249.115845,115.630661,111.846909,292.459351,92.356804,81.232986,310.582794,71.103271,49.176929
469,0,115.955185,173.165375,123.028969,249.118683,115.641251,111.831978,292.462006,92.366867,81.189568,310.598450,71.132149,49.106689
470,0,115.957176,173.203583,123.030586,249.112991,115.647552,111.785210,292.477631,92.371750,81.141220,310.625000,71.111526,49.092205
471,0,115.959946,173.186508,123.005638,249.144150,115.636299,111.734886,292.488495,92.366661,81.081635,310.465485,71.263519,48.933426
472,0,115.979691,173.210159,123.024956,249.176498,115.643219,111.687302,292.491577,92.360657,81.037239,310.485657,71.203468,48.859783
473,0,116.016930,173.185745,122.990517,249.184647,115.632507,111.627365,292.517273,92.341232,80.948730,310.488159,71.222603,48.770618
474,0,116.040428,173.155640,122.952324,249.216995,115.615196,111.573318,292.540527,92.372665,80.871017,310.477234,71.233017,48.665619
475,0,116.045853,173.127701,122.919182,249.234695,115.608849,111.476448,292.511017,92.406540,80.738594,310.478088,71.237587,48.536629
476,0,116.066849,173.113144,122.949455,249.233566,115.586319,111.426445,292.516449,92.392426,80.646378,310.479218,71.273148,48.430691
477,0,116.063744,173.113190,122.940544,249.252014,115.585289,111.363113,292.537231,92.422043,80.583023,310.456207,71.287270,48.349804
478,0,116.110809,173.103561,122.910934,249.284897,115.588844,111.314926,292.553711,92.429276,80.494850,310.496521,71.270653,48.271667
479,0,116.122643,173.077621,122.893616,249.288193,115.581139,111.243355,292.544403,92.444580,80.416901,310.450500,71.316216,48.166042
480,0,116.128891,173.077026,122.862915,249.290802,115.568588,111.228050,292.548431,92.455452,80.386978,310.495392,71.307983,48.124416
481,0,116.139526,173.086655,122.876648,249.294220,115.584908,111.195549,292.576477,92.463837,80.348503,310.467041,71.334587,48.052052
482,0,116.138474,173.071472,122.879204,249.292755,115.598526,111.188927,292.560181,92.490952,80.304855,310.440674,71.359352,48.006088
483,0,116.156143,173.105560,122.868080,249.301193,115.614899,111.163223,292.560150,92.491531,80.281425,310.485840,71.349754,47.974201
484,0,116.156326,173.078796,122.878716,249.305069,115.594765,111.154465,292.586273,92.467979,80.269203,310.456085,71.385468,47.958054
485,0,116.154533,173.092331,122.876808,249.312256,115.591942,111.127876,292.591125,92.476387,80.245377,310.512146,71.365990,47.941151
486,0,116.167137,173.118973,122.838860,249.329086,115.608574,111.124023,292.574371,92.520302,80.229485,310.472809,71.377960,47.899422
487,0,116.167267,173.120529,122.869400,249.318817,115.615227,111.097160,292.574890,92.537346,80.185661,310.461884,71.401695,47.872993
488,0,116.151207,173.118484,122.852631,249.326035,115.629959,111.087517,292.573120,92.536476,80.152130,310.538025,71.354385,47.880451
489,0,116.173927,173.112854,122.831589,249.321045,115.622017,111.070297,292.570251,92.542747,80.124390,310.435791,71.454376,47.776241
490,0,116.156288,173.106995,122.825775,249.324066,115.622246,111.044273,292.547577,92.540291,80.080894,310.472137,71.389839,47.763435
491,0,116.164948,173.111984,122.825325,249.312164,115.615250,111.019722,292.543121,92.545128,80.049759,310.406830,71.432846,47.702126
492,0,116.164001,173.116699,122.833740,249.327042,115.610962,110.983818,292.551941,92.545464,80.023254,310.500153,71.411751,47.684124
493,0,116.131805,173.122330,122.856804,249.308960,115.602814,110.972031,292.562958,92.536049,79.992882,310.429199,71.455025,47.648808
494,0,116.156456,173.081467,122.859062,249.302917,115.601700,110.961349,292.554260,92.512672,79.966499,310.413208,71.394234,47.629303
495,0,116.132462,173.090683,122.830750,249.266464,115.579941,110.958733,292.495239,92.523087,79.938484,310.288605,71.496414,47.539711
496,0,116.102364,173.105362,122.846588,249.247650,115.544037,110.934219,292.491821,92.490440,79.916382,310.293701,71.460617,47.541515
497,0,116.097610,173.106216,122.864342,249.247284,115.557693,110.925385,292.447998,92.486206,79.903938,310.259583,71.444153,47.549149
498,0,116.083153,173.108627,122.865349,249.237595,115.571655,110.932739,292.433441,92.480385,79.915260,310.287994,71.411964,47.553474
499,0,116.072388,173.130447,122.862801,249.245316,115.572159,110.933647,292.433838,92.471535,79.922569,310.237061,71.462471,47.548767
500,0,116.041878,173.147141,122.881760,249.232956,115.577232,110.944939,292.421295,92.482361,79.924149,310.275513,71.409897,47.576576
501,0,116.034760,173.128769,122.889702,249.221130,115.577957,110.947136,292.438171,92.509171,79.943817,310.306610,71.405563,47.586922
502,0,116.064049,173.134476,122.889397,249.230225,115.583702,110.969551,292.437958,92.511734,79.945717,310.310944,71.419708,47.595768
503,0,116.024475,173.137039,122.891403,249.210342,115.591866,110.980087,292.429443,92.537727,79.954994,310.271973,71.471680,47.606987
504,0,116.036613,173.131546,122.888298,249.198349,115.612709,110.999611,292.434692,92.564644,79.972137,310.292847,71.501411,47.602512
505,0,116.017700,173.141754,122.890465,249.192444,115.612633,110.992119,292.433258,92.555794,79.960167,310.272827,71.524292,47.628529
506,0,115.992950,173.119186,122.894142,249.193848,115.612823,111.008560,292.423401,92.582962,79.972847,310.268768,71.524933,47.632225
507,0,115.985023,173.128784,122.897324,249.164124,115.615501,111.019974,292.408997,92.564255,79.994774,310.259033,71.540688,47.630028
508,0,115.987633,173.146881,122.904190,249.150894,115.604546,111.021217,292.387054,92.580406,79.975876,310.223999,71.533020,47.634491
509,0,115.963715,173.209106,122.899010,249.158218,115.601089,111.010841,292.368256,92.567184,80.004005,310.234711,71.474678,47.672222
510,0,115.930008,173.239441,122.889603,249.143982,115.613716,111.015762,292.340179,92.567169,79.997749,310.175171,71.495064,47.651722
511,0,115.944588,173.257507,122.913429,249.152817,115.609619,111.028061,292.349304,92.533058,80.006363,310.216553,71.446938,47.662407
512,0,116.002625,173.272308,122.891335,249.171875,115.617981,111.032906,292.391724,92.535561,80.020256,310.258667,71.425079,47.671432
513,0,116.015953,173.267319,122.861160,249.188843,115.633957,111.023834,292.396393,92.550385,79.990120,310.216064,71.457466,47.654591
514,0,116.041382,173.289276,122.833504,249.218842,115.637856,110.997581,292.428772,92.539665,79.991539,310.284058,71.428467,47.659874
515,0,116.072365,173.313766,122.849136,249.270569,115.636635,110.986603,292.469696,92.565582,79.929520,310.293213,71.449280,47.576637
516,0,116.120300,173.274124,122.822090,249.326736,115.640617,110.953621,292.566650,92.570679,79.930328,310.360596,71.447990,47.535587
517,0,116.199509,173.300491,122.835197,249.353806,115.653702,110.938667,292.618439,92.597282,79.855118,310.347565,71.556526,47.472198
518,0,116.246040,173.294189,122.836243,249.442108,115.628166,110.872620,292.661896,92.614662,79.829880,310.396454,71.590630,47.374508
519,0,116.253914,173.276199,122.802513,249.467728,115.611038,110.850243,292.668823,92.793892,79.654846,310.409973,71.596207,47.296543
520,0,116.313690,173.257416,122.795265,249.519852,115.612556,110.800766,292.733032,92.665794,79.685684,310.439331,71.616318,47.226254
521,0,116.362000,173.235840,122.799881,249.562637,115.596001,110.754189,292.770233,92.777763,79.534126,310.489471,71.632278,47.151966
522,0,116.389175,173.200363,122.776070,249.598495,115.585800,110.709396,292.757782,92.760094,79.488892,310.512177,71.529770,47.095287
523,0,116.440552,173.206207,122.772041,249.594574,115.555237,110.653862,292.787567,92.609871,79.469032,310.442169,71.589523,46.998108
524,0,116.433914,173.184113,122.766762,249.625397,115.522804,110.604988,292.809021,92.566330,79.419151,310.476776,71.536644,46.960999
525,0,116.464447,173.177094,122.770218,249.654358,115.502464,110.598404,292.797180,92.548889,79.380867,310.457489,71.524773,46.902355
526,0,116.436775,173.213211,122.778427,249.650803,115.497406,110.557457,292.810730,92.530029,79.333725,310.494843,71.463066,46.890587
527,0,116.459282,173.160980,122.759888,249.634109,115.487289,110.540565,292.776764,92.514267,79.333786,310.433563,71.491508,46.881016
528,0,116.464050,173.161911,122.763130,249.623611,115.485001,110.549210,292.767822,92.485626,79.334518,310.403320,71.487991,46.841747
529,0,116.407738,173.223251,122.764786,249.625885,115.494637,110.524155,292.780304,92.521935,79.316010,310.402313,71.512596,46.823738
530,0,116.425262,173.205017,122.768730,249.627747,115.489182,110.534729,292.742554,92.513939,79.319931,310.420502,71.484856,46.830193
531,0,116.396027,173.244370,122.786240,249.610779,115.498032,110.539436,292.756775,92.527733,79.322548,310.468903,71.477104,46.853016
532,0,116.392189,173.245178,122.783722,249.606552,115.517662,110.563766,292.745789,92.531609,79.321564,310.444366,71.565071,46.841862
533,0,116.347397,173.261292,122.781723,249.580109,115.515610,110.536072,292.724182,92.560455,79.308456,310.458527,71.562721,46.842541
534,0,116.362381,173.234406,122.767517,249.588181,115.538780,110.542969,292.746094,92.566010,79.303780,310.466858,71.552208,46.841480
535,0,116.380806,173.211273,122.768173,249.566055,115.550537,110.534935,292.726135,92.561592,79.299461,310.476776,71.564209,46.832073
536,0,116.328568,173.227478,122.826241,249.559998,115.560928,110.521141,292.721954,92.577034,79.285660,310.417542,71.640701,46.813534
537,0,116.337112,173.182175,122.790634,249.533524,115.553299,110.518578,292.730896,92.532043,79.311134,310.483612,71.560181,46.780827
538,0,116.301369,173.226501,122.806076,249.528183,115.552689,110.521370,292.679291,92.593254,79.265572,310.344940,71.680054,46.742718
539,0,116.285950,173.231659,122.814789,249.502563,115.526077,110.490440,292.660309,92.561287,79.230598,310.368958,71.597137,46.731770
540,0,116.232430,173.212296,122.840248,249.472672,115.491234,110.465881,292.629150,92.512276,79.252151,310.298126,71.659882,46.723663
541,0,116.206009,173.197342,122.816887,249.444748,115.472534,110.445892,292.612152,92.508575,79.224869,310.325043,71.616028,46.700790
542,0,116.211433,173.145325,122.818192,249.415787,115.446594,110.455185,292.587952,92.456505,79.188042,310.325531,71.535751,46.692101
543,0,116.197021,173.150299,122.831848,249.384079,115.444221,110.433044,292.541504,92.456863,79.194511,310.218719,71.618874,46.635612
544,0,116.169632,173.155472,122.844795,249.379791,115.410393,110.427299,292.537201,92.445007,79.193008,310.350952,71.489662,46.678978
545,0,116.158173,173.142197,122.846855,249.356705,115.414116,110.427887,292.519043,92.438499,79.187912,310.213562,71.599709,46.663708
546,0,116.143097,173.059021,122.817390,249.339645,115.398781,110.417580,292.508636,92.423225,79.195595,310.269287,71.516754,46.658863
547,0,116.118546,173.064896,122.836365,249.316696,115.389351,110.428673,292.486145,92.424522,79.195786,310.251373,71.469421,46.679462
548,0,116.114258,173.056625,122.838615,249.297272,115.378220,110.449539,292.468231,92.433556,79.196571,310.232574,71.476311,46.684563
549,0,116.111916,173.031998,122.867371,249.262573,115.389374,110.455208,292.429169,92.413910,79.236343,310.265656,71.459854,46.694199
550,0,116.087112,173.019028,122.867378,249.256012,115.390114,110.466537,292.422119,92.425621,79.230820,310.240387,71.490562,46.705566
551,0,116.044174,173.030899,122.883255,249.246643,115.404175,110.462372,292.397186,92.435547,79.246605,310.214172,71.477280,46.725952
552,0,116.014046,173.039886,122.871910,249.214783,115.396378,110.468895,292.383575,92.440681,79.250404,310.170441,71.490707,46.732857
553,0,116.009850,173.066513,122.861267,249.170319,115.417046,110.450935,292.370911,92.466774,79.263512,310.183838,71.491264,46.735409
554,0,115.994881,173.048447,122.874954,249.160278,115.399361,110.456169,292.370575,92.461403,79.246216,310.145508,71.518219,46.738705
555,0,116.005127,173.043640,122.838699,249.157745,115.438606,110.450172,292.364197,92.449821,79.245407,310.068207,71.603752,46.715801
556,0,115.988129,173.078323,122.855942,249.155457,115.446648,110.458420,292.373230,92.459450,79.249405,310.128296,71.536339,46.745266
557,0,115.988388,173.088928,122.847717,249.143951,115.452705,110.456627,292.371338,92.472832,79.241020,310.139709,71.524780,46.711849
558,0,116.020180,173.088760,122.826111,249.186234,115.446411,110.445717,292.374023,92.479179,79.232697,310.146973,71.528023,46.712486
559,0,116.008247,173.086624,122.853439,249.171829,115.467476,110.455612,292.379730,92.491096,79.249451,310.140503,71.532806,46.719055
560,0,116.017181,173.128784,122.882645,249.199631,115.474861,110.455605,292.374786,92.484657,79.244957,310.158997,71.511353,46.716667
561,0,116.021538,173.107285,122.835594,249.202744,115.467171,110.455200,292.376495,92.490707,79.236679,310.184113,71.525124,46.721973
562,0,116.021523,173.115433,122.830727,249.204117,115.461090,110.455116,292.377197,92.487160,79.242249,310.183594,71.503151,46.713612
563,0,116.034431,173.104263,122.826691,249.189987,115.469910,110.443825,292.390198,92.500328,79.241310,310.199921,71.529503,46.728088
564,0,116.058830,173.111557,122.823341,249.242920,115.455444,110.470612,292.393738,92.494438,79.254639,310.207886,71.524429,46.748249
565,0,116.057884,173.103577,122.814987,249.238815,115.469452,110.464806,292.401886,92.500626,79.239761,310.223267,71.512840,46.741684
566,0,116.055405,173.171158,122.853416,249.248947,115.474007,110.479385,292.416199,92.511864,79.248405,310.228760,71.496376,46.746834
567,0,116.061386,173.127335,122.793671,249.261444,115.486794,110.473740,292.434540,92.511909,79.247520,310.229889,71.510124,46.762302
568,0,116.096100,173.147324,122.788261,249.279892,115.490860,110.478088,292.434357,92.518883,79.248322,310.236542,71.525055,46.737110
569,0,116.115646,173.162720,122.804047,249.295273,115.502510,110.480461,292.455475,92.530342,79.250427,310.239136,71.538300,46.778004
570,0,116.115356,173.170746,122.790581,249.293777,115.500908,110.481247,292.461273,92.533844,79.246513,310.171600,71.620491,46.751087
571,0,116.123573,173.175903,122.765984,249.310684,115.522575,110.476372,292.471344,92.528603,79.248032,310.168488,71.643997,46.752220
572,0,116.124405,173.216461,122.778786,249.319824,115.519600,110.472717,292.485107,92.547340,79.245010,310.171753,71.650703,46.745083
573,0,116.145164,173.216415,122.796036,249.317535,115.535713,110.467316,292.480713,92.546288,79.244492,310.220917,71.672211,46.742493
574,0,116.179482,173.189835,122.756477,249.358063,115.556854,110.468384,292.492706,92.565247,79.238251,310.225800,71.675995,46.743626
575,0,116.184578,173.219803,122.764389,249.351440,115.564674,110.487297,292.512909,92.560135,79.241096,310.224579,71.681534,46.742550
576,0,116.204239,173.182907,122.732948,249.384979,115.582413,110.491486,292.533234,92.571625,79.224922,310.244080,71.663094,46.704300
577,0,116.203773,173.207138,122.734451,249.391815,115.595642,110.489090,292.533813,92.592918,79.240173,310.274384,71.640999,46.725292
578,0,116.223663,173.216293,122.726532,249.388947,115.587601,110.474197,292.574890,92.584770,79.238266,310.312775,71.636475,46.731873
579,0,116.228897,173.199844,122.726074,249.391220,115.598053,110.493500,292.559601,92.597603,79.239540,310.308319,71.669167,46.778797
580,0,116.219101,173.241608,122.733315,249.394318,115.609871,110.498398,292.579071,92.594856,79.273972,310.313232,71.663086,46.769608
581,0,116.218307,173.208160,122.730782,249.388123,115.604286,110.496323,292.561371,92.604919,79.282745,310.311157,71.654869,46.792873
582,0,116.210686,173.218018,122.736671,249.406235,115.608475,110.499634,292.569031,92.611198,79.270065,310.296448,71.659042,46.780605
583,0,116.225525,173.242081,122.699272,249.392883,115.622589,110.497086,292.572815,92.610168,79.270714,310.266785,71.698730,46.773911
584,0,116.217049,173.270325,122.727127,249.397263,115.613708,110.500023,292.582947,92.606094,79.260818,310.332306,71.644104,46.790562
585,0,116.233253,173.256454,122.704987,249.400009,115.620422,110.506393,292.590210,92.595963,79.297531,310.317444,71.674255,46.794273
586,0,116.232719,173.256683,122.716003,249.402130,115.614960,110.499405,292.577515,92.611755,79.288193,310.279572,71.715889,46.768955
587,0,116.217384,173.270432,122.683411,249.413742,115.647400,110.524597,292.566406,92.642052,79.301765,310.303955,71.667305,46.787659
588,0,116.234428,173.286148,122.714409,249.406555,115.645004,110.502914,292.577911,92.652802,79.316017,310.337708,71.622200,46.840942
589,0,116.229218,173.288544,122.728523,249.405411,115.678566,110.531952,292.572845,92.668083,79.304855,310.355103,71.673088,46.841309
590,0,116.151642,173.310608,122.744102,249.400238,115.668427,110.528313,292.555603,92.721786,79.299370,310.297394,71.728020,46.827442
591,0,116.173164,173.315842,122.715759,249.382507,115.673897,110.519508,292.551819,92.729027,79.277596,310.350800,71.696785,46.835369
592,0,116.152657,173.353424,122.726219,249.372787,115.693359,110.505295,292.547272,92.731735,79.272957,310.326477,71.716637,46.829029
593,0,116.141510,173.407394,122.726830,249.375931,115.696777,110.493286,292.541901,92.792038,79.237297,310.346619,71.701332,46.819252
594,0,116.135948,173.423157,122.733040,249.375732,115.707397,110.487968,292.540375,92.782059,79.241646,310.300598,71.751534,46.816647
595,0,116.156876,173.410110,122.679405,249.389221,115.714478,110.445984,292.514191,92.801208,79.186844,310.312195,71.694153,46.772621
596,0,116.135704,173.449921,122.691292,249.362198,115.735901,110.402306,292.514465,92.814011,79.159454,310.302887,71.683578,46.739937
597,0,116.127571,173.479492,122.668007,249.332794,115.751335,110.356796,292.499939,92.870453,79.097603,310.260590,71.673439,46.683468
598,0,116.126579,173.560425,122.704018,249.342392,115.791496,110.307297,292.469666,92.879395,79.067520,310.289886,71.655151,46.653587
599,0,116.113258,173.627274,122.725159,249.332611,115.817574,110.308632,292.439606,92.910316,79.031273,310.247498,71.706238,46.615204
600,0,116.103554,173.652557,122.699554,249.335739,115.821045,110.282677,292.450470,92.913628,79.001961,310.258118,71.724960,46.593323
601,0,116.104713,173.655823,122.714989,249.350235,115.800797,110.292824,292.461029,92.893921,79.041458,310.291962,71.714706,46.624889
602,0,116.133690,173.618378,122.689323,249.345016,115.763214,110.331306,292.531738,92.860245,79.093178,310.349274,71.694244,46.696095
603,0,116.172432,173.653061,122.729736,249.395996,115.759590,110.447914,292.546448,92.823364,79.195541,310.345703,71.693268,46.783470
604,0,116.207756,173.665588,122.741371,249.431931,115.720413,110.560127,292.621887,92.771530,79.384094,310.413757,71.644234,46.969589
605,0,116.259644,173.660187,122.764015,249.475693,115.696808,110.753563,292.655609,92.878212,79.534203,310.426361,71.704758,47.240620
606,0,116.313164,173.721497,122.803467,249.555557,115.702538,110.991112,292.822021,92.712975,79.931351,310.575592,71.601051,47.559425
607,0,116.423004,173.765030,122.826935,249.663773,115.717316,111.266006,292.967407,92.652763,80.294594,310.768616,71.508865,48.020592
608,0,116.498421,173.819611,122.863350,249.750702,115.734436,111.560692,293.092773,92.644577,80.743645,311.020966,71.374878,48.628548
609,0,116.491798,173.954712,123.010254,249.821411,115.823685,111.975471,293.201782,92.751221,81.206017,311.308685,71.279243,49.256790
610,0,116.492065,174.032043,123.176529,249.803558,115.910118,112.509811,293.330353,92.696045,81.915421,311.454102,71.379066,49.906689
611,0,116.391243,174.114334,123.416481,249.735092,115.983032,113.175423,293.383759,92.764351,82.737747,311.455688,71.617569,50.689808
612,0,116.241211,174.147995,123.695877,249.634781,116.044525,114.014389,293.415344,92.822960,83.732231,311.726379,71.595840,51.822105
613,0,115.983200,174.132431,124.009926,249.508484,116.069000,115.027939,293.437714,92.935051,84.919754,312.006775,71.721352,53.158722
614,0,115.732201,174.118774,124.357964,249.258301,116.071648,116.217560,293.426971,93.128677,86.262955,312.042175,72.047279,54.532566
615,0,115.392799,173.969711,124.728668,249.018250,116.050667,117.646988,293.411804,93.158104,87.932976,312.411926,72.085335,56.326206
616,0,115.049179,173.849838,125.134644,248.755096,115.984573,119.058426,293.373718,93.161430,89.740189,312.693665,72.078781,58.287025
617,0,114.773178,173.695267,125.515892,248.443924,115.889366,120.626099,293.411743,93.102005,91.691849,312.979889,72.034447,60.416996
618,0,114.472237,173.621841,125.947685,248.192566,115.876457,122.239517,293.346161,92.987061,93.742958,313.191986,71.859329,62.671124
619,0,114.222275,173.577774,126.380859,247.940781,115.873871,123.834778,293.373474,92.875885,95.777496,313.454498,71.634193,64.881073
620,0,114.057915,173.598618,126.702560,247.699631,115.952293,125.412735,293.307587,92.723648,97.838760,313.597351,71.317101,67.221367
621,0,113.903587,173.606522,126.936722,247.485672,116.035110,126.959961,293.272980,92.585106,99.801155,313.442871,71.167419,69.336395
622,0,113.819031,173.741104,127.164337,247.290253,116.176445,128.423981,293.292023,92.487755,101.779366,313.784576,70.668007,71.587616
623,0,113.761658,173.860764,127.348068,247.132233,116.356026,129.895645,293.251770,92.357895,103.633430,313.771118,70.328430,73.611412
624,0,113.648216,173.797211,127.335472,246.908264,116.597008,131.276978,293.206299,92.252052,105.404457,313.756012,69.983566,75.574974
625,0,113.637474,173.899918,127.462807,246.762390,116.777351,132.577454,293.172241,92.171883,107.127304,313.541931,69.589783,77.246384
626,0,113.666847,174.105377,127.657440,246.600647,116.982719,133.897171,293.037384,92.036407,108.597626,313.301422,69.225182,78.703026
627,0,113.645309,174.214951,127.768364,246.396164,117.100471,135.070068,292.933777,91.910927,109.859016,312.816772,68.836693,79.788673
628,0,113.632828,174.237823,127.882050,246.223312,117.175339,136.149109,292.731201,91.650909,110.962433,312.093353,68.450722,80.507294
629,0,113.578011,174.227051,127.958191,246.066299,117.274353,137.267365,292.384003,91.368782,111.831619,311.133911,67.974838,80.807045
630,0,113.478897,174.156479,127.921059,245.909714,117.300629,138.277817,292.112671,91.099541,112.673523,310.061401,67.521500,80.848167
631,0,113.489449,174.236099,128.028900,245.647690,117.352592,139.164703,291.876190,90.833969,113.619560,308.976837,67.053024,80.926308
632,0,113.379807,174.085724,127.916039,245.360611,117.425896,139.916275,291.634460,90.648903,114.624931,308.025055,66.583946,81.112946
633,0,113.385910,174.067215,127.945259,245.051697,117.489334,140.542953,291.447388,90.537727,115.656929,307.265381,66.261864,81.374496
634,0,113.345299,174.000061,127.882195,244.732910,117.481560,141.161316,291.356354,90.496880,116.563965,306.557343,66.068123,81.507530
635,0,113.289963,173.918564,127.822235,244.431290,117.458191,141.695953,291.367157,90.543900,117.421051,305.732513,65.954369,81.492859
636,0,113.263481,173.843246,127.769989,244.222260,117.434975,142.205231,291.421722,90.523994,118.195900,304.683228,65.855370,81.163269
637,0,113.143578,173.700485,127.686172,244.024551,117.406647,142.704117,291.337952,90.442070,118.766052,303.370636,65.666115,80.836861
638,0,113.171944,173.762512,127.761482,243.866135,117.420624,143.180862,291.267303,90.204689,119.314682,301.928955,65.327049,80.606270
639,0,113.116692,173.705734,127.747017,243.709015,117.494133,143.674698,291.058502,89.857971,119.866425,300.461487,65.003372,80.373581
640,0,113.115875,173.667786,127.683533,243.587509,117.564720,144.157654,290.955017,89.545990,120.516151,299.065521,64.692154,80.321854
641,0,113.115112,173.626740,127.623962,243.452179,117.596207,144.595139,290.802490,89.310242,121.127663,297.512970,64.295883,80.322472
642,0,113.074593,173.567474,127.583458,243.322479,117.635475,144.993805,290.736603,89.132057,121.656830,296.270721,64.174278,80.354561
643,0,113.091820,173.492874,127.554283,243.174194,117.709846,145.338333,290.653107,88.950317,122.137146,294.928558,64.122810,80.260796
644,0,113.077507,173.276062,127.351074,243.061096,117.765717,145.638611,290.619446,88.755783,122.573112,293.764374,64.000282,80.221428
645,0,113.121841,173.167709,127.250717,243.030609,117.838722,145.914124,290.574646,88.548134,122.864937,292.491943,63.899220,80.103752
646,0,113.130646,173.080093,127.178268,242.954376,117.843788,146.166779,290.485535,88.223824,123.001823,290.958923,63.876926,79.800125
647,0,113.214592,173.033905,127.076775,243.004333,117.858665,146.484634,290.468506,87.907387,123.105957,289.155762,64.015800,79.375618
648,0,113.336288,172.742889,126.743111,243.063873,117.931114,146.717270,290.293457,87.470253,123.068031,287.422516,63.969814,78.907555
649,0,113.428177,172.683258,126.577515,243.129776,118.063484,146.902374,289.985687,86.920395,123.014771,285.652527,63.916550,78.539009
650,0,113.502930,172.649689,126.379280,243.191635,118.133324,147.038574,289.678436,86.347549,122.916061,283.885437,63.775345,78.143410
651,0,113.612854,173.052963,126.532745,243.312576,118.264824,147.163971,289.420990,85.867432,122.741806,282.168976,63.851894,77.748131
652,0,113.694916,173.059784,126.417068,243.423859,118.301956,147.241211,289.183319,85.482422,122.423851,280.529633,63.985207,77.358711
653,0,113.795654,172.981522,126.220169,243.534225,118.380096,147.266830,288.997101,85.165230,122.030991,278.931641,64.221664,76.961372
654,0,113.882393,172.935638,126.097961,243.592590,118.349899,147.344589,288.856689,84.871346,121.771088,277.173798,64.504219,76.718636
655,0,113.948105,172.968369,125.995697,243.674484,118.373993,147.357101,288.683197,84.579681,121.512825,275.918518,64.856689,76.530838
656,0,114.034721,172.928177,125.849052,243.709412,118.373657,147.430313,288.479553,84.319939,121.250900,274.477417,65.216537,76.355553
657,0,114.112160,172.613068,125.426918,243.755447,118.409698,147.502060,288.264435,83.956177,121.009323,272.963623,65.676270,76.227028
658,0,114.242233,172.642792,125.280945,243.885818,118.491234,147.610153,287.987518,83.567696,120.713028,270.978943,66.173035,76.250870
659,0,114.383858,172.651642,125.072449,244.033768,118.565460,147.743713,287.750061,83.305305,120.355385,268.978943,66.888420,75.840309
660,0,114.526085,172.710205,124.914505,244.185211,118.692085,147.937820,287.460114,82.908257,120.206360,267.248627,67.382301,75.902962
661,0,114.700874,173.124542,124.993187,244.301819,118.866035,148.157288,287.095428,82.628601,120.036957,265.848846,67.776489,76.186050
662,0,114.851334,173.235229,124.852081,244.439758,119.109856,148.374664,286.730164,82.204842,120.072128,264.446320,68.160683,76.447723
663,0,114.983017,173.312195,124.717628,244.544495,119.304237,148.655045,286.426117,81.958481,120.099411,262.998047,68.845062,76.952919
664,0,115.123123,173.365326,124.638901,244.609528,119.465355,148.969864,286.125854,81.752014,120.078537,261.548767,69.548470,77.291458
665,0,115.215698,173.440430,124.597633,244.742310,119.666527,149.352615,285.839478,81.602989,120.051811,259.785980,70.676132,77.839951
666,0,115.348511,173.519012,124.560356,244.871704,119.899651,149.779465,285.466492,81.460007,120.075638,258.301453,71.434502,78.293007
667,0,115.456528,173.626907,124.525818,244.989243,120.150314,150.202286,285.059387,81.347992,120.112289,256.906555,72.224190,78.815170
668,0,115.616318,173.611008,124.410461,245.077881,120.437889,150.603149,284.594971,81.247292,120.124924,255.423004,73.069008,79.425484
669,0,115.745995,173.736954,124.389130,245.139450,120.741768,151.025665,284.179962,81.196533,120.174782,254.194794,73.793716,79.983765
670,0,115.804840,173.824631,124.310326,245.201324,121.096268,151.430557,283.742737,81.210381,120.134468,253.065613,74.450142,80.414627
671,0,115.911171,173.889465,124.296005,245.264938,121.444679,151.816086,283.290161,81.259392,120.080612,251.279083,75.489471,80.808647
672,0,115.997055,173.789230,124.109230,245.337692,121.860489,152.140686,282.817322,81.290016,119.989349,250.101471,76.236923,81.234009
673,0,116.126671,173.823776,124.013596,245.414459,122.217316,152.505005,282.213715,81.279106,119.953651,248.806305,76.978119,81.666153
674,0,116.230370,173.919601,123.971832,245.468933,122.527740,152.828903,281.666351,81.272659,119.900223,247.900345,77.470955,81.937714
675,0,116.334068,174.027847,123.870529,245.562897,122.867119,153.086548,281.187073,81.311195,119.808647,246.658691,78.277222,82.505745
676,0,116.436234,174.071594,123.758499,245.697906,123.276642,153.302261,280.732635,81.407204,119.644058,245.782837,78.857880,82.760895
677,0,116.515388,174.134567,123.681496,245.853455,123.611855,153.429398,280.339905,81.473679,119.417038,,,
678,0,116.611961,174.297836,123.605133,246.000885,123.934601,153.474152,279.969910,81.519325,119.139839,,,
679,0,116.717171,174.357422,123.474884,246.167374,124.247299,153.459030,279.633698,81.571434,118.853378,,,
680,0,116.810158,174.542923,123.404778,246.358795,124.496971,153.349686,279.338989,81.602669,118.498444,,,
681,0,116.919037,174.537521,123.286110,246.535660,124.707443,153.182220,279.029510,81.531677,118.109512,,,
682,0,117.015312,174.239990,122.934822,246.720764,124.839775,152.962189,278.728088,81.461418,117.617798,,,
683,0,117.065102,174.269531,122.823700,246.913757,124.865250,152.721588,278.422333,81.405502,117.084625,,,
684,0,117.149910,174.285843,122.670013,246.988632,124.863144,152.492096,278.116302,81.231636,116.576782,,,
685,0,117.205620,174.301254,122.574921,247.047546,124.792992,152.367126,277.848755,81.055626,116.194916,,,
686,0,117.212273,174.356354,122.496635,247.072449,124.740547,152.185944,277.537537,80.901497,115.814255,,,
687,0,117.263771,174.328094,122.404518,247.101212,124.708588,152.026688,277.291870,80.713432,115.515808,,,
688,0,117.277420,174.329285,122.334282,247.147446,124.661690,151.878952,277.060150,80.581039,115.263702,,,
689,0,117.286636,174.259583,122.257935,247.172287,124.586632,151.776749,276.827332,80.344437,115.043381,,,
690,0,117.285843,174.281052,122.262810,247.249054,124.506180,151.702637,276.572845,80.131805,114.870682,,,
691,0,117.230598,174.354202,122.361061,247.272476,124.445801,151.643875,276.351074,79.995239,114.660797,,,
692,0,117.266190,174.345123,122.376076,247.306366,124.356606,151.597656,276.128540,79.827484,114.478569,,,
693,0,117.244354,174.339050,122.432953,247.362534,124.320351,151.514450,275.980988,79.725609,114.300827,,,
694,0,117.249725,174.297562,122.425491,247.398682,124.274696,151.449127,275.871155,79.627602,114.068665,,,
695,0,117.213364,174.258499,122.394196,247.395081,124.225090,151.358490,275.781128,79.519455,113.907852,,,
696,0,117.234276,174.267242,122.335159,247.397888,124.229393,151.269318,275.706024,79.487068,113.770264,,,
697,0,117.272659,174.248886,122.288811,247.384750,124.183662,151.165543,275.609497,79.475388,113.548424,,,
698,0,117.281197,174.239792,122.230804,247.423843,124.153549,151.066254,275.530975,79.454620,113.366287,,,
699,0,117.319061,174.247833,122.181282,247.480743,124.130722,150.963257,275.474609,79.400894,113.191315,,,
700,0,117.341133,174.329437,122.195190,247.508438,124.153740,150.875854,275.520264,79.407166,113.034431,,,
701,0,117.369026,174.334045,122.161392,247.535645,124.144798,150.813202,275.403351,79.385719,112.870552,,,
702,0,117.382599,174.366302,122.130684,247.580307,124.180634,150.746796,275.509796,79.442574,112.802597,,,
703,0,117.413223,174.273483,122.018417,247.565826,124.226814,150.722046,275.501709,79.458649,112.802139,,,
704,0,117.395210,174.373093,122.060654,247.515503,124.309898,150.765411,275.438812,79.491417,112.836555,,,
705,0,117.394104,174.331024,122.050209,247.472397,124.388260,150.823029,275.517181,79.687981,112.927246,,,
706,0,117.347000,174.325470,122.029732,247.419983,124.516983,150.905777,275.597198,79.860214,113.096008,,,
707,0,117.342026,174.256378,122.016464,247.346039,124.638252,151.029465,275.602173,80.037018,113.230606,,,
708,0,117.302811,174.264587,122.056923,247.326096,124.746681,151.177399,275.662567,80.170319,113.350807,,,
709,0,117.274223,174.310165,122.158829,247.282349,124.877930,151.325638,275.685028,80.369545,113.502083,,,
710,0,117.201385,174.332138,122.204620,247.209641,124.991837,151.529541,275.702393,80.460953,113.725685,,,
711,0,117.083740,174.502518,122.335823,247.098129,125.089211,151.794312,275.729340,80.568008,114.074104,,,
712,0,117.020226,174.591141,122.457504,246.906845,125.190872,152.137619,275.698639,80.700188,114.486275,,,
713,0,116.917542,174.704391,122.596497,246.725479,125.237625,152.515015,275.639008,80.755852,114.936043,,,
714,0,116.843216,174.770554,122.728737,246.531860,125.301018,152.941254,275.558533,80.780014,115.506462,,,
715,0,116.764229,174.751968,122.854683,246.357162,125.334007,153.350616,275.621735,80.789162,116.111633,,,
716,0,116.719589,174.974884,123.178680,246.170135,125.345573,153.833588,275.439117,80.758133,116.661781,,,
717,0,116.679512,174.978195,123.316147,246.041977,125.389771,154.292038,275.414551,80.809563,117.238091,,,
718,0,116.671043,174.930420,123.441696,245.924759,125.495316,154.770737,275.433502,80.825058,117.932953,,,
719,0,116.678841,174.857452,123.463531,245.851456,125.625389,155.261917,275.475342,80.945923,118.607880,,,
720,0,116.616364,174.960144,123.727913,245.800598,125.838188,155.757141,275.567719,81.061661,119.307037,,,
721,0,116.661499,175.013367,123.894775,245.807541,126.081810,156.183380,275.678467,81.268349,119.955116,,,
722,0,116.667656,175.092987,124.060905,245.700546,126.250359,156.732117,275.766693,81.345512,120.686165,,,
723,0,116.673752,175.189560,124.250717,245.667694,126.427513,157.276077,275.825073,81.413765,121.379822,,,
724,0,116.694923,175.202377,124.431602,245.648605,126.524910,157.786926,275.850983,81.524971,122.029663,,,
725,0,116.710617,175.222961,124.650459,245.564301,126.558258,158.356339,275.853241,81.545433,122.666763,,,
726,0,116.637032,174.929764,124.533180,245.430710,126.567375,158.892456,275.841461,81.466568,123.337135,,,
727,0,116.674652,174.928802,124.711716,245.321609,126.550629,159.380493,275.827332,81.450821,123.958885,,,
728,0,116.665733,174.899948,124.893135,245.187546,126.471283,159.847855,275.766174,81.332115,124.561890,,,
729,0,116.643806,174.886749,125.057251,245.010300,126.411987,160.328003,275.712067,81.261246,125.145378,,,
730,0,116.672859,174.822327,125.154022,244.854767,126.366676,160.763718,275.584351,81.182037,125.665680,,,
731,0,116.642746,174.760529,125.338882,244.763214,126.315895,161.161514,275.578094,81.111328,126.174240,,,
732,0,116.642479,174.655869,125.416725,244.640411,126.264053,161.551361,275.550720,81.060913,126.568527,,,
733,0,116.589233,174.624893,125.550880,244.525894,126.201912,161.898865,275.501251,81.036415,126.954407,,,
734,0,116.532364,174.573792,125.635208,244.413406,126.145332,162.180267,275.488861,80.999695,127.297935,,,
735,0,116.483566,174.504410,125.763359,244.269165,126.072617,162.436859,275.426941,80.922119,127.571243,,,
736,0,116.458031,174.412231,125.798706,244.204468,126.004753,162.646362,275.380219,80.901268,127.782043,,,
737,0,116.424629,174.363724,125.890465,244.060257,125.890327,162.842834,275.331482,80.840439,128.027161,,,
738,0,116.362740,174.267197,125.959023,243.939987,125.788612,162.993790,275.285156,80.777367,128.228165,,,
739,0,116.286362,174.177368,126.015839,243.860809,125.687050,163.140137,275.286957,80.727585,128.401566,,,
740,0,116.236526,174.076996,126.040535,243.759033,125.598610,163.230545,275.300018,80.686539,128.503159,,,
741,0,116.201279,173.980392,126.100365,243.639801,125.490326,163.349579,275.354370,80.720192,128.600372,,,
742,0,116.098091,173.824631,126.124680,243.564926,125.400055,163.416626,275.478607,80.793663,128.684067,,,
743,0,116.017609,173.637741,126.146896,243.425369,125.356750,163.513245,275.641174,80.942001,128.792618,,,
744,0,115.900131,173.430161,126.145287,243.302292,125.304802,163.608597,275.828217,81.117439,128.944321,,,
745,0,115.811981,173.233734,126.167519,243.189056,125.311760,163.721451,276.062531,81.403839,129.096527,,,
746,0,115.665932,173.043503,126.238914,243.030762,125.306786,163.796326,276.358521,81.731422,129.225388,,,
747,0,115.501366,173.280853,126.616966,242.916840,125.349998,163.869171,276.818787,82.151016,129.452637,,,
748,0,115.373558,173.117035,126.706528,242.815506,125.394615,163.979584,277.298645,82.585281,129.714432,,,
749,0,115.253357,173.072906,126.829193,242.706345,125.452789,164.037659,277.957397,83.122231,130.008469,,,
750,0,115.143776,173.021423,126.921654,242.615158,125.508682,164.099655,278.600769,83.618095,130.321365,,,
751,0,115.067467,172.917648,126.919853,242.601456,125.535446,164.111801,279.251892,84.146851,130.598068,,,
752,0,114.982887,172.970169,127.046944,242.606033,125.620216,164.112701,279.916779,84.761414,130.828751,,,
753,0,114.847511,173.071381,127.226952,242.607422,125.723289,164.084595,280.551453,85.383621,131.023880,245.316788,79.972122,93.318222
754,0,114.725967,173.310471,127.531898,242.610001,125.801666,164.031662,281.303558,86.017899,131.331665,247.358749,79.461456,91.998917
755,0,114.625923,173.440201,127.696709,242.622742,125.930237,163.973297,282.187073,86.721252,131.731125,248.982864,79.033630,92.038239
756,0,114.544685,173.547424,127.799690,242.693680,126.044525,163.859268,282.836273,87.419830,132.025894,250.835037,78.471786,92.083832
757,0,114.430130,173.683701,127.985550,242.780930,126.134338,163.672501,283.574951,88.136017,132.222397,252.461288,78.140816,92.638550
758,0,114.295845,173.778259,128.176346,242.919907,126.197456,163.484253,284.317627,88.796959,132.349228,254.351196,77.442299,91.762070
759,0,114.178833,173.899597,128.343613,243.085129,126.235008,163.256454,285.021973,89.467674,132.342834,256.412750,76.845169,91.604774
760,0,114.092087,173.949738,128.502609,243.250290,126.127083,163.052155,285.794434,90.274750,132.368622,258.307953,76.338326,91.308830
761,0,113.988831,173.977432,128.565186,243.351990,126.017838,162.816681,286.326691,90.878967,132.272690,260.102356,75.834267,90.878967
762,0,113.860092,173.840775,128.560913,243.463333,125.830490,162.561523,286.769318,91.437172,132.148239,262.016144,75.233765,90.463074
763,0,113.801903,173.971420,128.804703,243.604965,125.615105,162.317596,287.062225,91.717262,131.943665,263.995239,74.396141,89.919434
764,0,113.694405,174.040985,128.997772,243.746887,125.356926,162.062653,287.350739,92.109062,131.629272,266.416077,73.337723,89.317749
765,0,113.629547,174.083939,129.147339,243.845840,125.061897,161.806702,287.434509,92.160912,131.348129,268.619904,72.279030,88.853409
766,0,113.544472,174.492050,129.602005,243.944565,124.740440,161.549393,287.394257,92.156891,131.058746,271.137146,70.960869,88.156502
767,0,113.481117,174.608490,129.784317,243.949677,124.363655,161.308060,287.237579,91.933937,130.772003,273.198120,70.000664,87.894539
768,0,113.408859,174.758011,130.012787,244.019073,124.040955,161.048843,286.940674,91.395302,130.581528,274.909698,69.017136,87.721291
769,0,113.328575,174.927078,130.266296,244.143295,123.699303,160.836853,286.598419,90.889053,130.163345,276.269958,68.021217,87.724411
770,0,113.370766,175.116135,130.490097,244.311249,123.404160,160.563889,286.504852,90.623062,129.823532,277.409668,67.206383,87.581932
771,0,113.351814,175.330383,130.743652,244.451828,123.092957,160.298889,286.277008,90.191948,129.306473,278.612579,66.435089,87.368156
772,0,113.275688,175.435272,130.927948,244.557159,122.807808,160.038956,286.103058,89.848793,128.800903,279.529083,65.714973,87.282341
773,0,113.220627,175.520737,131.107025,244.685135,122.556549,159.821884,285.711060,89.415657,128.199585,280.382385,65.145622,87.203568
774,0,113.148842,175.539474,131.272247,244.746841,122.286263,159.622086,285.540375,89.207939,127.824036,281.156982,64.674538,87.197639
775,0,113.060310,175.340714,131.240631,244.807800,122.048164,159.455902,285.423401,89.044197,127.467499,281.893921,64.243820,87.225464
776,0,113.035851,175.360855,131.358047,244.861649,121.823181,159.295319,285.228333,88.881981,127.041336,282.730957,63.924557,87.253052
777,0,112.999046,175.377151,131.491653,244.891815,121.585564,159.153656,285.029083,88.732498,126.648354,283.175964,63.598595,87.237335
778,0,112.985138,175.399353,131.617950,244.972305,121.408607,159.025787,284.882629,88.590317,126.207710,283.662811,63.376709,87.171577
779,0,112.978798,175.451843,131.723450,245.062714,121.229103,158.892288,284.760681,88.573631,125.845284,284.130798,63.255936,87.092216
780,0,113.027580,175.467239,131.785858,245.136017,121.111946,158.812698,284.695099,88.552895,125.492424,284.624390,63.249619,87.069389
781,0,113.026329,175.542496,131.878891,245.195602,121.002838,158.697113,284.690430,88.599464,125.181496,285.125305,63.253716,87.016174
782,0,113.058510,175.604904,131.955765,245.240753,120.856369,158.579010,284.647247,88.656662,124.868126,285.659973,63.309116,87.029579
783,0,113.066513,175.643402,132.017548,245.255707,120.734306,158.453262,284.650177,88.725449,124.621178,286.021423,63.337929,86.997734
784,0,113.064514,175.710373,132.084503,245.301956,120.660950,158.338943,284.666046,88.769882,124.369453,286.574036,63.429810,87.082832
785,0,113.081665,175.788727,132.114319,245.356506,120.618729,158.172256,284.673401,88.845886,124.108345,287.063538,63.479980,87.097382
786,0,113.110916,175.859070,132.148773,245.468140,120.661530,157.985504,284.712189,88.969208,123.846390,287.620636,63.540398,87.135979
787,0,113.141380,175.931488,132.123734,245.600937,120.732063,157.706635,284.760681,89.063133,123.586006,288.088013,63.603252,87.235306
788,0,113.183846,176.062775,132.138092,245.643585,120.767822,157.559418,284.826965,89.158615,123.403023,288.684326,63.561493,87.479172
789,0,113.204445,176.126602,132.151703,245.747314,120.797218,157.349991,284.931396,89.294426,123.246590,289.272308,63.489273,87.578300
790,0,113.179375,176.129776,132.135269,245.802917,120.798996,157.128922,285.050507,89.401939,123.089539,289.839355,63.586002,87.629677
791,0,113.209564,176.145874,132.148575,245.887619,120.767174,156.912598,285.181030,89.576241,122.854973,290.389618,63.824490,87.561050
792,0,113.246475,176.110931,132.107635,245.934616,120.696404,156.731186,285.274933,89.756950,122.516708,290.890411,64.139328,87.385429
793,0,113.304878,176.092300,132.058929,245.945679,120.639519,156.548996,285.358765,89.933105,122.147102,291.203583,64.443527,87.114250
794,0,113.395157,176.091293,131.995056,246.021393,120.587181,156.391235,285.388153,90.003624,121.834167,291.404694,64.614601,86.857269
795,0,113.478806,176.138855,131.894089,246.071640,120.578850,156.243896,285.392914,90.046402,121.605629,291.490814,64.711868,86.659149
796,0,113.544037,176.202377,131.783279,246.181442,120.663292,156.116165,285.420898,90.059692,121.427055,291.605591,64.744469,86.540886
797,0,113.668121,176.276520,131.658295,246.231659,120.783150,156.022522,285.613373,90.175751,121.368874,291.758972,64.828697,86.502296
798,0,113.764687,176.274384,131.472107,246.300629,120.928986,155.952759,285.747620,90.322212,121.310272,291.965179,64.999161,86.490105
799,0,113.862198,176.283081,131.311920,246.415543,121.089294,155.932770,285.896973,90.509140,121.334915,292.166321,65.219994,86.492737
800,0,113.947609,176.249390,131.184143,246.517960,121.275093,155.919022,286.108368,90.706886,121.336594,292.456909,65.470016,86.468025
801,0,114.077400,176.403229,131.298584,246.627777,121.476471,155.934464,286.256775,90.913498,121.343300,292.579865,65.624405,86.516014
802,0,114.207138,176.362900,131.187851,246.728149,121.608513,155.918182,286.400635,91.110390,121.320381,292.723755,65.785431,86.506577
803,0,114.300743,176.328201,131.073776,246.852402,121.711655,155.935837,286.519348,91.270348,121.240974,292.819214,66.016014,86.444099
804,0,114.390205,176.270752,130.947357,246.931000,121.808708,155.941101,286.538971,91.353401,121.153519,292.843170,66.073288,86.371529
805,0,114.451141,176.267487,130.858414,246.964340,121.867485,155.968124,286.544922,91.394241,121.107414,292.753387,66.226799,86.245590
806,0,114.423302,175.963776,130.582672,246.937775,121.887344,156.007751,286.530182,91.408112,121.088303,292.801514,66.361671,86.156448
807,0,114.408905,175.929108,130.524475,246.854736,121.842010,156.029083,286.463989,91.434715,121.119972,292.774811,66.390465,86.155968
808,0,114.400665,176.107651,130.708679,246.733154,121.826385,156.067612,286.394104,91.365692,121.185425,292.673828,66.378036,86.213142
809,0,114.325447,175.891342,130.454178,246.629944,121.765640,156.113373,286.317535,91.272743,121.287659,292.596710,66.245956,86.312180
810,0,114.317543,176.147614,130.664780,246.516998,121.759285,156.161804,286.206024,91.126495,121.431396,292.464996,66.048042,86.490097
811,0,114.292168,176.164261,130.637070,246.407822,121.716164,156.214661,286.095215,91.004173,121.607422,292.343323,65.901497,86.656097
812,0,114.248749,176.149002,130.597702,246.316315,121.715813,156.325516,285.976807,90.903107,121.781509,292.200806,65.709404,86.890007
813,0,114.227646,176.139053,130.573151,246.199020,121.715332,156.415100,285.905823,90.847366,121.945465,292.091278,65.570770,87.109680
814,0,114.135742,176.095001,130.611389,246.074936,121.665169,156.509445,285.836395,90.793579,122.098495,292.054230,65.490601,87.309357
815,0,114.114944,176.008316,130.611862,245.956421,121.592201,156.616623,285.800415,90.777138,122.219070,292.021637,65.433014,87.442131
816,0,114.028358,175.948151,130.629181,245.827316,121.481377,156.686249,285.724548,90.703674,122.295052,291.943695,65.427216,87.515350
817,0,113.960709,175.891602,130.686707,245.739716,121.380768,156.777496,285.624329,90.594254,122.332947,291.840790,65.314575,87.533592
818,0,113.913666,175.835785,130.721008,245.656418,121.256287,156.846039,285.512726,90.459045,122.370834,291.658020,65.227921,87.527702
819,0,113.877281,175.804855,130.745529,245.565186,121.137871,156.893402,285.392426,90.335052,122.431229,291.542389,65.122459,87.533737
820,0,113.847900,175.741425,130.786057,245.471161,121.054749,156.960800,285.351593,90.257225,122.467804,291.432068,65.078087,87.577698
821,0,113.855690,175.687622,130.764053,245.420334,121.012764,157.050095,285.288910,90.203690,122.516663,291.377441,65.013504,87.631805
822,0,113.820015,175.671448,130.785629,245.389801,121.008865,157.085632,285.257935,90.145004,122.593117,291.311981,64.999664,87.651405
823,0,113.831680,175.639633,130.775330,245.329071,120.959023,157.128906,285.254730,90.109367,122.668129,291.288361,64.948669,87.697502
824,0,113.830788,175.612488,130.775787,245.295868,120.933746,157.155090,285.239594,90.076172,122.721237,291.208893,64.862083,87.715073
825,0,113.810654,175.563614,130.732803,245.209076,120.879433,157.195816,285.227875,90.005402,122.764557,291.183838,64.799919,87.736382
826,0,113.806061,175.456131,130.748642,245.132004,120.790924,157.233673,285.210449,89.914772,122.875221,291.090271,64.734299,87.731407
827,0,113.744423,175.385117,130.758118,245.047363,120.672737,157.264679,285.186188,89.778221,122.965637,291.044403,64.639763,87.762680
828,0,113.716980,175.317368,130.753906,244.953964,120.579712,157.305756,285.111755,89.644310,123.067368,290.991394,64.555939,87.757812
829,0,113.656631,175.240494,130.761841,244.828705,120.509552,157.378143,285.079468,89.488708,123.234879,290.879272,64.452682,87.854294
830,0,113.626396,175.176315,130.760162,244.649094,120.442169,157.464279,285.011169,89.315453,123.459824,290.752838,64.228027,88.075722
831,0,113.533409,175.081482,130.709152,244.546661,120.393143,157.562042,284.933380,89.196327,123.731735,290.605896,64.115150,88.209618
832,0,113.481232,175.101654,130.749069,244.376389,120.365028,157.653473,284.949951,89.118271,124.030914,290.492889,63.863144,88.410118
833,0,113.414543,175.021881,130.732239,244.212738,120.333229,157.770096,284.865356,88.988655,124.333649,290.337250,63.711651,88.618050
834,0,113.364662,174.966461,130.685562,244.079239,120.304909,157.879639,284.698700,88.723778,124.599739,290.276825,63.497066,88.851234
835,0,113.323357,174.892883,130.662689,243.919052,120.285751,157.975174,284.642822,88.612801,124.957611,290.233002,63.417160,89.099678
836,0,113.269981,174.839722,130.650314,243.730957,120.282326,158.081665,284.643188,88.483711,125.298347,290.258270,63.326241,89.356071
837,0,113.220695,174.799423,130.632706,243.573105,120.288078,158.121780,284.642120,88.405983,125.641869,290.267059,63.297272,89.543518
838,0,113.126587,174.788040,130.620148,243.433121,120.293800,158.173141,284.730591,88.422745,125.998123,290.382965,63.297436,89.736626
839,0,113.100166,174.742065,130.580200,243.297821,120.332581,158.142883,284.860596,88.427284,126.317131,290.768280,63.191540,89.997231
840,0,113.065323,174.759109,130.582245,243.144287,120.275116,158.082581,284.954285,88.457825,126.480354,291.204437,63.167015,90.094032
841,0,113.036690,174.761780,130.573807,243.095184,120.275795,157.938614,285.195587,88.542381,126.700699,291.459106,63.822956,90.090454
842,0,113.026344,174.780350,130.529022,243.065186,120.342598,157.754440,285.408813,88.623398,126.809807,291.958221,63.947475,90.162956
843,0,113.023071,174.853058,130.488876,243.022507,120.406456,157.526688,285.579102,88.755493,126.774803,292.530243,64.074860,90.166367
844,0,113.023209,174.859100,130.456589,243.048279,120.439667,157.273270,285.874481,88.953255,126.755135,293.085083,64.301544,90.178658
845,0,113.007187,174.903259,130.413391,243.084885,120.504883,156.976791,286.230835,89.132240,126.791519,293.705780,64.421883,90.140427
846,0,113.010056,174.959839,130.357178,243.122559,120.553650,156.612305,286.479126,89.316483,126.695305,294.397766,64.688950,90.087067
847,0,112.981422,174.963501,130.351700,243.161407,120.601105,156.253952,286.833710,89.580597,126.582222,295.018494,64.931839,90.050430
848,0,113.019516,174.904434,130.129272,243.192093,120.643387,155.857208,287.073120,89.741730,126.420334,295.757233,65.040199,89.978317
849,0,113.037697,174.903351,130.112839,243.294052,120.617332,155.455994,287.204193,89.784149,126.227158,296.399689,65.195419,89.954163
850,0,113.023735,174.939117,130.062027,243.374924,120.619606,155.051620,287.493347,89.952103,126.063583,297.072388,65.278641,89.960686
851,0,113.014206,174.950104,130.054245,243.432053,120.588203,154.622910,287.696198,89.975998,125.961617,297.855164,65.260674,90.034500
852,0,113.048615,174.982178,130.011139,243.499100,120.561661,154.160049,287.963623,90.102753,125.835327,298.629272,65.424271,90.215752
853,0,113.076172,174.998688,129.945740,243.560593,120.539719,153.653290,288.236359,90.186287,125.672760,299.214325,65.747322,90.352455
854,0,113.096375,174.994888,129.902359,243.685089,120.527992,153.181427,288.533203,90.263390,125.496658,300.144104,65.554520,90.535027
855,0,113.126076,174.988419,129.877533,243.824127,120.487762,152.683441,288.809662,90.377258,125.306679,300.960510,65.822586,90.752876
856,0,113.168427,175.063965,129.873566,244.012589,120.490639,152.062363,289.059875,90.439796,125.029907,301.895508,65.524681,90.924576
857,0,113.164330,175.156311,129.981766,244.251328,120.454330,151.503708,289.328888,90.498093,124.757141,302.742615,65.616219,90.995834
858,0,113.208435,175.250961,129.983093,244.452332,120.395500,150.801025,289.577789,90.550537,124.368568,303.593750,65.660316,91.007187
859,0,113.274124,175.262024,129.909668,244.657028,120.360085,150.070419,289.829895,90.588425,123.896255,304.234161,65.952408,91.050133
860,0,113.334946,175.392639,129.996109,244.855942,120.267303,149.236847,290.070770,90.664062,123.417992,305.202820,66.024384,91.077484
861,0,113.324677,175.624069,130.162216,245.086563,120.200737,148.276001,290.364624,90.740379,122.792870,306.372528,65.919792,91.147385
862,0,113.358444,175.726624,130.208115,245.359940,120.118484,147.292313,290.586456,90.763756,122.128418,307.357880,65.961929,91.158081
863,0,113.414902,175.896118,130.233215,245.634125,120.066612,146.283951,290.879852,90.883392,121.430511,308.297394,66.104324,91.071297
864,0,113.484642,176.008102,130.200348,245.897858,120.027473,145.186249,291.174408,91.050529,120.683327,309.258575,66.330032,90.908676
865,0,113.579376,176.188324,130.186111,246.239548,120.050224,144.006989,291.447144,91.283638,119.893394,310.265686,66.634186,90.675797
866,0,113.650978,176.333115,130.124268,246.477676,120.082382,142.773560,291.815308,91.634659,119.050156,311.142395,67.133980,90.340881
867,0,113.735260,176.242004,129.771805,246.832245,120.164558,141.429916,292.145294,91.966263,117.919762,312.281677,67.467384,90.038300
868,0,113.821617,176.417877,129.721329,247.149124,120.189453,140.119186,292.432709,92.353569,116.822693,313.246368,68.067825,89.481560
869,0,113.956039,176.604248,129.658752,247.403030,120.219536,138.779007,292.757599,92.781311,115.654518,314.255371,68.677696,88.911026
870,0,114.095352,176.737000,129.558212,247.705322,120.322723,137.361786,293.123627,93.226730,114.376205,315.130219,69.283936,88.253815
871,0,114.234810,176.816864,129.441071,247.985748,120.335999,136.054077,293.283295,93.579369,113.183456,315.896545,69.996384,87.479362
872,0,114.341782,176.887848,129.294357,248.168777,120.324219,134.751450,293.531738,94.024559,111.944328,316.601898,70.787170,86.537491
873,0,114.452667,176.907166,129.158279,248.424606,120.384705,133.570892,293.776520,94.491516,110.690163,317.100677,71.585220,85.510902
874,0,114.617119,177.110886,129.254105,248.625122,120.384735,132.394928,293.990509,94.814301,109.453789,317.912781,72.249985,84.671356
875,0,114.769760,177.099808,129.110779,248.863022,120.420288,131.305374,294.233307,95.302574,108.435387,318.552399,72.634888,83.967583
876,0,114.919884,177.101959,129.024826,249.113007,120.411400,130.222076,294.444061,95.679619,107.323784,319.170898,73.409973,83.080933
877,0,115.046341,176.934677,128.731262,249.313065,120.424278,129.157166,294.652679,95.983002,106.211876,319.848572,74.007896,82.316223
878,0,115.230240,176.965149,128.596436,249.459381,120.452118,128.157852,294.712097,96.260635,105.256645,319.851562,74.396835,81.409515
879,0,115.438454,177.023819,128.434799,249.708374,120.530876,127.187668,294.903107,96.582733,104.279907,320.314789,74.841072,80.619263
880,0,115.696823,177.234146,128.428452,249.952057,120.639282,126.224342,295.066010,96.860641,103.356445,320.667816,75.407822,79.763000
881,0,115.916069,177.339493,128.278442,250.153488,120.737625,125.381622,295.183777,97.070793,102.477219,321.057678,75.606346,79.196968
882,0,116.135368,177.404510,128.090530,250.373901,120.824440,124.533508,295.266968,97.213730,101.682098,321.173370,76.016556,78.466194
883,0,116.360756,177.427094,127.858849,250.492004,120.805756,123.754791,295.346893,97.336784,100.966087,321.464508,75.937523,77.924980
884,0,116.518066,177.458130,127.789062,250.642029,120.841721,123.002480,295.390717,97.427467,100.173645,321.749390,76.196426,77.361145
885,0,116.697151,177.388046,127.475235,250.740021,120.776031,122.264503,295.335236,97.496071,99.405792,321.809631,76.291588,76.747467
886,0,116.780373,177.341858,127.430481,250.761505,120.682938,121.614632,295.308289,97.498154,98.646133,321.648712,76.344620,75.968056
887,0,116.831512,177.304428,127.373337,250.739273,120.559044,120.998718,295.263306,97.505554,97.958061,321.560822,76.656868,75.173050
888,0,116.832939,177.185059,127.311127,250.690048,120.449471,120.498589,295.179565,97.543564,97.344177,321.583771,76.794456,74.508270
889,0,116.790108,177.269821,127.410278,250.655563,120.333824,120.055420,295.127655,97.561996,96.837036,321.653870,76.866798,74.050240
890,0,116.756805,177.246506,127.418312,250.626678,120.269714,119.631989,295.064941,97.582558,96.401047,321.466919,76.769409,73.702522
891,0,116.807358,177.140839,127.228584,250.575043,120.206184,119.233543,294.945923,97.568207,96.003632,321.529449,77.028984,73.250488
892,0,116.786095,177.180756,127.351242,250.557983,120.165596,118.879425,294.876556,97.596893,95.633446,321.625244,76.941612,73.061340
893,0,116.797699,177.170227,127.277344,250.546814,120.115585,118.574860,294.862457,97.618950,95.303513,321.507507,77.304436,72.547623
894,0,116.843048,177.161804,127.181412,250.546997,120.062241,118.254272,294.846008,97.591980,94.967834,321.569824,77.108292,72.376297
895,0,116.914177,177.175858,127.113266,250.567734,120.030174,117.962265,294.827789,97.601105,94.679749,321.575714,77.120216,72.120773
896,0,117.002686,177.213165,127.071098,250.631927,119.991615,117.634872,294.821350,97.602097,94.387543,321.535828,77.122414,71.813484
897,0,117.067543,177.260452,126.974045,250.693680,120.005165,117.329056,294.856232,97.600777,94.093330,321.557800,77.156357,71.486374
898,0,117.139687,177.297394,126.937462,250.752060,120.066002,117.038185,294.907837,97.644241,93.761711,321.669617,76.912422,71.283325
899,0,117.226509,177.357697,126.906693,250.795547,120.124069,116.758560,294.949677,97.711975,93.388687,321.655701,77.308334,70.682365
900,0,117.274765,177.373413,126.812248,250.812347,120.194214,116.449356,294.971283,97.809074,92.986267,321.802917,77.280495,70.359543
901,0,117.276611,177.407272,126.772896,250.879196,120.234779,116.148445,295.010345,97.928726,92.605049,321.864044,77.444611,69.974815
902,0,117.310898,177.398972,126.718521,250.921188,120.266449,115.818077,295.003052,98.138550,92.256950,321.954987,77.666626,69.581284
