Trajectories
100
,,Sano:Wrist,,,Sano:MPH3,,,Sano:PIP3,,,Sano:DIP3,,,
Frame,Sub Frame,X,Y,Z,X,Y,Z,X,Y,Z,X,Y,Z
,,mm,mm,mm,mm,mm,mm,mm,mm,mm,mm,mm,mm
1,0,-135.474045,152.322708,48.565063,-29.983141,65.776390,55.932667,13.187667,37.012676,53.715794,42.997833,8.748553,36.510452
2,0,-135.455841,152.275940,48.578358,-29.998522,65.746628,55.955997,13.202960,37.012165,53.723064,43.005882,8.724104,36.493324
3,0,-135.456039,152.245514,48.580345,-29.989388,65.748642,55.950256,13.220411,37.015720,53.746151,43.027840,8.720274,36.495983
4,0,-135.455643,152.214462,48.577232,-29.993380,65.751122,55.944462,13.202913,37.012482,53.722836,43.006664,8.741640,36.524307
5,0,-135.471344,152.208420,48.579487,-30.022686,65.736641,55.958694,13.169669,37.029228,53.718613,43.027946,8.738108,36.547337
6,0,-135.472580,152.223343,48.555473,-30.007559,65.741356,55.911640,13.187007,37.006630,53.729248,43.039902,8.709018,36.544048
7,0,-135.454132,152.200958,48.567665,-30.021095,65.756477,55.923729,13.178172,37.013081,53.730511,43.029335,8.726588,36.538155
8,0,-135.454666,152.201950,48.565468,-30.018951,65.752159,55.937462,13.173071,37.030457,53.728329,43.054794,8.718221,36.584831
9,0,-135.436676,152.210434,48.554016,-30.021700,65.754623,55.902367,13.176393,37.018185,53.717915,43.038158,8.726657,36.557823
10,0,-135.474731,152.207504,48.550888,-30.031151,65.762039,55.879303,13.166102,36.993977,53.724693,43.032566,8.729568,36.552521
11,0,-135.416092,152.190445,48.570587,-30.032228,65.774658,55.899078,13.166238,36.994606,53.733940,43.028946,8.735117,36.577324
12,0,-135.416153,152.191467,48.565094,-30.014730,65.772232,55.904221,13.178428,36.977085,53.746143,43.050709,8.725990,36.567223
13,0,-135.412415,152.205612,48.570824,-30.027971,65.777863,55.906612,13.171204,36.989929,53.729523,43.058075,8.723477,36.576729
14,0,-135.416275,152.236237,48.601871,-30.028715,65.778008,55.906059,13.167646,36.969467,53.746311,43.041893,8.692257,36.622860
15,0,-135.391479,152.191193,48.646168,-30.019821,65.753761,55.916317,13.195243,36.931618,53.770782,43.071926,8.698455,36.578850
16,0,-135.389984,152.216003,48.648117,-30.005033,65.758064,55.907455,13.188080,36.952892,53.752705,43.078491,8.701018,36.600235
17,0,-135.393250,152.207153,48.659794,-29.991985,65.751747,55.907253,13.190543,36.941490,53.762680,43.063244,8.697814,36.585838
18,0,-135.358704,152.194473,48.658875,-29.983192,65.750366,55.917458,13.196221,36.944241,53.766094,43.072273,8.686112,36.611378
19,0,-135.376160,152.240540,48.646023,-29.982681,65.764534,55.889187,13.180445,36.957451,53.758312,43.074883,8.677263,36.600086
20,0,-135.379578,152.238480,48.658276,-30.008005,65.796425,55.861897,13.174892,36.984600,53.735970,43.051411,8.697418,36.585766
21,0,-135.385513,152.241074,48.646423,-29.992838,65.774559,55.868954,13.185344,36.978172,53.745132,43.067642,8.667994,36.581455
22,0,-135.370056,152.233627,48.672577,-30.005718,65.780136,55.870564,13.190033,36.976162,53.734493,43.037693,8.662281,36.610283
23,0,-135.361618,152.256332,48.667770,-30.000978,65.782394,55.876141,13.150426,36.986118,53.725090,43.008221,8.679576,36.558281
24,0,-135.377563,152.251465,48.672920,-30.018890,65.772659,55.858856,13.111149,36.957504,53.713299,43.019573,8.674261,36.557766
25,0,-135.387772,152.254745,48.667355,-30.044289,65.756538,55.848038,13.102749,36.970795,53.693535,42.994732,8.703558,36.552856
26,0,-135.398270,152.268051,48.650841,-30.042667,65.784836,55.834843,13.092675,36.988358,53.719547,43.021103,8.690047,36.573067
27,0,-135.385483,152.252243,48.660648,-30.042130,65.742188,55.825481,13.091429,36.987541,53.716064,42.984768,8.695547,36.552032
28,0,-135.395935,152.269012,48.639946,-30.086391,65.814789,55.793072,13.085142,36.992439,53.696915,42.973053,8.701897,36.545605
29,0,-135.379944,152.270004,48.628399,-30.061829,65.774849,55.793087,13.100121,36.993565,53.682858,42.989460,8.700606,36.548859
30,0,-135.400513,152.278549,48.598129,-30.091463,65.809021,55.771347,13.073889,37.005539,53.666981,42.981209,8.701339,36.546516
31,0,-135.392838,152.232330,48.571831,-30.080597,65.788185,55.763760,13.095422,36.988667,53.674088,42.978497,8.703507,36.547836
32,0,-135.378174,152.236984,48.563480,-30.071745,65.801102,55.760769,13.094914,36.988983,53.677528,42.975346,8.700155,36.549904
33,0,-135.395721,152.222015,48.545040,-30.078146,65.785194,55.769680,13.107061,36.988415,53.673492,42.983742,8.697432,36.561062
34,0,-135.387650,152.206833,48.490410,-30.071344,65.778572,55.745163,13.100114,36.992527,53.685234,43.015976,8.690060,36.574863
35,0,-135.403122,152.175522,48.460434,-30.082777,65.770287,55.731838,13.108174,36.986465,53.697231,43.016933,8.709888,36.552498
36,0,-135.378967,152.182693,48.445663,-30.079254,65.759834,55.726685,13.104517,36.986801,53.662010,43.016991,8.700998,36.569267
37,0,-135.383347,152.123047,48.413746,-30.097563,65.758064,55.720127,13.130340,36.962704,53.703377,43.018665,8.696266,36.564163
38,0,-135.378708,152.107300,48.383106,-30.110741,65.769081,55.681854,13.100028,36.968548,53.654163,43.004192,8.703268,36.549763
39,0,-135.384094,152.084183,48.341808,-30.117937,65.759911,55.662663,13.095024,36.975029,53.664909,43.012527,8.700887,36.545998
40,0,-135.412369,152.067810,48.333374,-30.136169,65.746742,55.655205,13.095881,36.973652,53.639820,43.016407,8.694328,36.582890
41,0,-135.391556,152.050644,48.269741,-30.128159,65.737488,55.638180,13.101493,36.956551,53.656303,43.000412,8.699703,36.572166
42,0,-135.380371,152.035965,48.240414,-30.157101,65.729431,55.633507,13.099100,36.955227,53.644787,43.000271,8.696883,36.552513
43,0,-135.405289,152.040710,48.237640,-30.162317,65.744202,55.628326,13.093960,36.964520,53.655102,42.987652,8.700514,36.551208
44,0,-135.403168,152.032181,48.213314,-30.173498,65.751930,55.599449,13.097015,36.954277,53.635487,43.008472,8.693180,36.564915
45,0,-135.422852,152.026871,48.185806,-30.174595,65.771179,55.569035,13.094977,36.961136,53.623520,42.977283,8.695974,36.557476
46,0,-135.434845,151.998032,48.149696,-30.216572,65.761703,55.571556,13.055978,36.935768,53.627064,42.997650,8.701695,36.546455
47,0,-135.429001,152.017136,48.169041,-30.202271,65.738731,55.569603,13.088215,36.988628,53.628494,42.989513,8.721107,36.567047
48,0,-135.407349,152.033081,48.176048,-30.229010,65.763435,55.569256,13.044172,36.942822,53.602665,42.948376,8.714263,36.556190
49,0,-135.376907,152.010941,48.159733,-30.208954,65.779984,55.561687,13.031968,36.928246,53.626781,42.957367,8.706078,36.543427
50,0,-135.381561,152.031326,48.181980,-30.180054,65.772774,55.562260,13.075210,36.948883,53.639507,42.987228,8.688060,36.561024
51,0,-135.370651,152.046082,48.185669,-30.162521,65.792656,55.566025,13.105556,36.973213,53.646095,43.002735,8.717104,36.554688
52,0,-135.357010,152.068512,48.193275,-30.137266,65.813255,55.564163,13.117813,37.004242,53.632671,43.013149,8.716046,36.554379
53,0,-135.332169,152.067383,48.224327,-30.127991,65.805763,55.565147,13.122982,37.018490,53.624485,43.026562,8.736278,36.563522
54,0,-135.324081,152.105270,48.233700,-30.116850,65.798759,55.591492,13.110788,37.027996,53.644550,43.026833,8.732130,36.564381
55,0,-135.333344,152.091736,48.264999,-30.108309,65.810646,55.585075,13.118917,37.002586,53.656116,43.003578,8.731665,36.541187
56,0,-135.317581,152.097900,48.254692,-30.114292,65.786804,55.610477,13.123582,37.003342,53.655327,43.023312,8.714362,36.568363
57,0,-135.289276,152.104843,48.284695,-30.093855,65.777893,55.632065,13.129682,37.003826,53.668804,43.025417,8.717644,36.567780
58,0,-135.305359,152.098969,48.292912,-30.101513,65.780609,55.640060,13.130741,36.977051,53.648129,43.028233,8.715714,36.559372
59,0,-135.318604,152.115280,48.287544,-30.115341,65.791031,55.641701,13.112391,36.982265,53.657520,43.031643,8.702586,36.560318
60,0,-135.338135,152.109070,48.297115,-30.097164,65.782852,55.646564,13.121684,36.969284,53.689411,43.028038,8.694727,36.563904
61,0,-135.330307,152.108459,48.303215,-30.095806,65.784172,55.651588,13.141050,36.954735,53.694035,43.026688,8.696494,36.551361
62,0,-135.301758,152.099991,48.303898,-30.091808,65.786110,55.648457,13.134318,36.965939,53.676136,43.025501,8.670443,36.567005
63,0,-135.333618,152.116104,48.297367,-30.084873,65.768974,55.668827,13.128102,36.951920,53.682842,43.020329,8.687047,36.567287
64,0,-135.340073,152.115356,48.307419,-30.061089,65.780853,55.680729,13.116990,36.955425,53.697163,43.025742,8.702938,36.564098
65,0,-135.305222,152.103134,48.310513,-30.062016,65.798233,55.690071,13.171419,36.973213,53.671158,43.021595,8.701402,36.561485
66,0,-135.291641,152.125977,48.290863,-30.051456,65.820976,55.683746,13.181999,36.962337,53.711876,43.025303,8.695091,36.567364
67,0,-135.283722,152.122345,48.284790,-30.051376,65.820557,55.679726,13.192253,36.935349,53.692310,43.083755,8.667055,36.565548
68,0,-135.315277,152.117645,48.284008,-30.043316,65.780685,55.688095,13.190093,36.960388,53.695042,43.069424,8.709652,36.569103
69,0,-135.290970,152.104431,48.283150,-30.044327,65.783775,55.698494,13.198891,36.953400,53.715496,43.067795,8.703298,36.597267
70,0,-135.297562,152.108261,48.287697,-30.052395,65.787628,55.716270,13.214199,36.983017,53.748627,43.081329,8.683488,36.563625
71,0,-135.337067,152.110840,48.292412,-30.066502,65.764885,55.735149,13.228175,36.949066,53.743958,43.092464,8.692680,36.600079
72,0,-135.365738,152.067642,48.303196,-30.074223,65.746468,55.750263,13.190730,36.919392,53.734436,43.098846,8.650296,36.589249
73,0,-135.388245,152.089722,48.331543,-30.079672,65.736465,55.780540,13.167585,36.937206,53.729149,43.060413,8.668690,36.574692
74,0,-135.389908,152.081696,48.346447,-30.071516,65.709282,55.798073,13.200898,36.876949,53.737423,43.084332,8.642673,36.612556
75,0,-135.439728,152.104401,48.402050,-30.048197,65.721519,55.833580,13.177855,36.898712,53.762142,43.089462,8.663614,36.584393
76,0,-135.433426,152.097031,48.379028,-30.051985,65.711121,55.841476,13.225394,36.896694,53.797283,43.069763,8.650681,36.586842
77,0,-135.406723,152.143250,48.428616,-30.038692,65.721924,55.857189,13.232932,36.902630,53.781528,43.094837,8.661449,36.594494
78,0,-135.400833,152.143097,48.428509,-30.031281,65.764748,55.888123,13.236567,36.932785,53.776020,43.067589,8.682044,36.587593
79,0,-135.399658,152.201080,48.419643,-30.026007,65.779480,55.873051,13.228118,36.957355,53.763470,43.079330,8.720367,36.599594
80,0,-135.402039,152.216354,48.435055,-29.967426,65.810516,55.894554,13.261810,36.934624,53.793163,43.135780,8.697198,36.592915
81,0,-135.364456,152.194977,48.405582,-29.969395,65.809685,55.892944,13.274131,36.947578,53.790257,43.119724,8.685102,36.606293
82,0,-135.377518,152.190002,48.426182,-29.975441,65.794151,55.903969,13.285039,36.931759,53.807178,43.133915,8.693111,36.602730
83,0,-135.371277,152.195084,48.418243,-29.967089,65.780212,55.904709,13.303459,36.945976,53.821308,43.115715,8.679361,36.609886
84,0,-135.390808,152.208450,48.443806,-29.964775,65.760406,55.925251,13.286531,36.914696,53.837536,43.145378,8.663231,36.630157
85,0,-135.383881,152.211319,48.458290,-29.956892,65.742752,55.954865,13.301686,36.888638,53.840977,43.148891,8.674246,36.646935
86,0,-135.399948,152.169373,48.475246,-29.966043,65.720039,55.960510,13.310534,36.902813,53.850128,43.169128,8.645364,36.641876
87,0,-135.389191,152.167435,48.502895,-29.951330,65.735023,55.991730,13.335158,36.885872,53.853161,43.171127,8.655821,36.603519
88,0,-135.371719,152.177734,48.551098,-29.955162,65.738998,56.005779,13.326406,36.897076,53.875843,43.164742,8.676221,36.610722
89,0,-135.391663,152.202286,48.571526,-29.936670,65.740631,56.036575,13.330384,36.886494,53.866432,43.195446,8.680337,36.661980
90,0,-135.380997,152.179672,48.586571,-29.940769,65.746346,56.067024,13.322137,36.898613,53.895538,43.212212,8.661562,36.637203
91,0,-135.384811,152.192917,48.604942,-29.928621,65.751732,56.060261,13.348439,36.884209,53.878826,43.202961,8.642694,36.652542
92,0,-135.392349,152.197739,48.659657,-29.912577,65.731697,56.088799,13.324030,36.889637,53.887966,43.202526,8.632262,36.653122
93,0,-135.400894,152.203751,48.665257,-29.908709,65.717819,56.091381,13.347399,36.877552,53.902760,43.177265,8.661783,36.659267
94,0,-135.392258,152.198486,48.680435,-29.914680,65.717117,56.109676,13.363950,36.890884,53.878643,43.185478,8.662716,36.659126
95,0,-135.387680,152.215576,48.720158,-29.895397,65.736145,56.112072,13.363029,36.866585,53.886623,43.196873,8.670286,36.642975
96,0,-135.374268,152.233948,48.725536,-29.905468,65.732567,56.109280,13.354353,36.865150,53.882393,43.209667,8.648385,36.630730
97,0,-135.376450,152.241074,48.747650,-29.896101,65.731499,56.112957,13.389754,36.858936,53.906216,43.199135,8.677375,36.643265
98,0,-135.344513,152.205276,48.778648,-29.885445,65.725563,56.129047,13.432542,36.871548,53.900723,43.209827,8.650664,36.650585
99,0,-135.369690,152.209290,48.857056,-29.895796,65.731026,56.145264,13.445005,36.803085,53.944359,43.188606,8.645530,36.648369
100,0,-135.371475,152.206848,48.927177,-29.875513,65.705856,56.179214,13.454516,36.807037,53.929420,43.228218,8.629401,36.647209
101,0,-135.372513,152.246994,49.004234,-29.875742,65.664093,56.220615,13.408277,36.790806,53.971382,43.187851,8.596795,36.642967
102,0,-135.361206,152.266922,49.077885,-29.867674,65.667992,56.269283,13.437603,36.779507,53.983852,43.190178,8.586559,36.652203
103,0,-135.332626,152.268204,49.188812,-29.830397,65.665436,56.299580,13.439904,36.759235,53.989075,43.190056,8.596554,36.663479
104,0,-135.304871,152.286148,49.240364,-29.837807,65.658943,56.351715,13.437051,36.776733,53.993599,43.232948,8.602849,36.641418
105,0,-135.271332,152.320908,49.318844,-29.807774,65.674507,56.372295,13.463408,36.782036,54.020424,43.228477,8.590569,36.650867
106,0,-135.252838,152.319809,49.423714,-29.777987,65.673325,56.402985,13.459439,36.764202,54.046318,43.223038,8.602024,36.670410
107,0,-135.218811,152.334000,49.470699,-29.746490,65.683640,56.450089,13.541638,36.803028,54.064766,43.290436,8.605833,36.681629
108,0,-135.168701,152.373581,49.539753,-29.714470,65.658478,56.510277,13.557101,36.770618,54.068130,43.282330,8.618060,36.658756
109,0,-135.175537,152.371429,49.592041,-29.701391,65.678513,56.516762,13.571134,36.762379,54.102577,43.286186,8.581293,36.670765
110,0,-135.178085,152.372543,49.683884,-29.709042,65.673264,56.543827,13.587050,36.750454,54.111786,43.278507,8.596170,36.667522
111,0,-135.148483,152.392136,49.732658,-29.699026,65.680733,56.576607,13.592455,36.734604,54.123825,43.286308,8.573668,36.674885
112,0,-135.134644,152.422791,49.806675,-29.695196,65.676941,56.604462,13.585250,36.720203,54.132790,43.285648,8.573934,36.679024
113,0,-135.141891,152.447937,49.845829,-29.674557,65.660179,56.616264,13.584518,36.718727,54.132870,43.260742,8.562623,36.686844
114,0,-135.179199,152.506363,49.871655,-29.689596,65.662514,56.641968,13.563890,36.697510,54.137234,43.289391,8.562936,36.687084
115,0,-135.142044,152.484970,49.918655,-29.703009,65.697220,56.672871,13.559131,36.724205,54.132565,43.251858,8.564919,36.675484
116,0,-135.185669,152.496841,50.008884,-29.679979,65.672745,56.708897,13.560658,36.719032,54.166080,43.245132,8.581077,36.711895
117,0,-135.220459,152.513214,50.012180,-29.692091,65.643143,56.709927,13.551628,36.698311,54.150581,43.239601,8.560238,36.686646
118,0,-135.261566,152.489029,50.029198,-29.684540,65.624161,56.728340,13.547987,36.674526,54.141304,43.216347,8.563783,36.655167
119,0,-135.309311,152.508392,50.056408,-29.712843,65.601265,56.730686,13.529098,36.666302,54.162891,43.224934,8.549949,36.678188
120,0,-135.312836,152.483307,50.088585,-29.732967,65.567688,56.755161,13.521735,36.643269,54.156296,43.178055,8.530363,36.671024
121,0,-135.358109,152.473312,50.118439,-29.772560,65.519501,56.763103,13.467581,36.642056,54.177643,43.127037,8.549185,36.689384
122,0,-135.360168,152.444839,50.114441,-29.772308,65.506424,56.764832,13.443207,36.631496,54.162018,43.142376,8.533901,36.673923
123,0,-135.406631,152.459045,50.097824,-29.793291,65.532120,56.760159,13.430707,36.587360,54.169178,43.108089,8.543630,36.676308
124,0,-135.407898,152.406647,50.067650,-29.794395,65.483574,56.757477,13.426671,36.600197,54.156471,43.145069,8.523973,36.660355
125,0,-135.419601,152.388199,50.106121,-29.811415,65.496124,56.745975,13.425185,36.600857,54.158432,43.112011,8.555413,36.678013
126,0,-135.429260,152.386536,50.110924,-29.802816,65.494965,56.779621,13.437350,36.598736,54.168987,43.104530,8.523101,36.686974
127,0,-135.411469,152.358490,50.108437,-29.791582,65.498665,56.782299,13.445707,36.611713,54.151176,43.105709,8.545500,36.702370
128,0,-135.413712,152.383469,50.087502,-29.810513,65.495804,56.770229,13.435096,36.614944,54.152977,43.137138,8.540166,36.695538
129,0,-135.418381,152.368835,50.087833,-29.805117,65.510452,56.759087,13.442919,36.612595,54.149128,43.129028,8.546731,36.691116
130,0,-135.444031,152.379074,50.085598,-29.878969,65.533661,56.747826,13.442825,36.614143,54.154350,43.127598,8.568493,36.655239
131,0,-135.441147,152.381958,50.090370,-29.885508,65.516174,56.748695,13.435042,36.595226,54.165802,43.088970,8.522630,36.658600
132,0,-135.466049,152.406433,50.075966,-29.887342,65.485268,56.761635,13.438520,36.595341,54.153816,43.067459,8.532736,36.636486
133,0,-135.477417,152.435776,50.115803,-29.881269,65.453392,56.774021,13.419958,36.579727,54.160561,43.085632,8.527356,36.645817
134,0,-135.527618,152.379929,50.117199,-29.902290,65.476753,56.778511,13.423781,36.559280,54.159702,43.074917,8.514292,36.645573
135,0,-135.525787,152.370819,50.115505,-29.899485,65.458595,56.789589,13.398477,36.565342,54.165310,43.070755,8.493603,36.659664
136,0,-135.521286,152.370178,50.135975,-29.886797,65.430328,56.785290,13.404479,36.532040,54.168152,43.076778,8.499742,36.662949
137,0,-135.496780,152.359756,50.136658,-29.872194,65.437401,56.786625,13.401320,36.531437,54.175282,43.086296,8.491156,36.671951
138,0,-135.520386,152.365128,50.146397,-29.898642,65.451538,56.830135,13.388139,36.523430,54.189270,43.081383,8.499046,36.663403
139,0,-135.551575,152.378632,50.135681,-29.885809,65.405266,56.833691,13.418877,36.533497,54.197727,43.050133,8.480518,36.655563
140,0,-135.554565,152.378922,50.135258,-29.905846,65.424454,56.838623,13.393815,36.502270,54.186966,43.044376,8.475798,36.668659
141,0,-135.562378,152.372437,50.150433,-29.884230,65.395973,56.864620,13.361380,36.476543,54.194038,43.077023,8.457762,36.658165
142,0,-135.548279,152.357483,50.167469,-29.890593,65.368027,56.872288,13.390055,36.486046,54.201431,43.064289,8.430435,36.649864
143,0,-135.535080,152.332581,50.192410,-29.890379,65.340431,56.891869,13.405637,36.468323,54.219883,43.064636,8.421285,36.643082
144,0,-135.573471,152.360443,50.187843,-29.898172,65.342888,56.903137,13.371616,36.467918,54.230404,43.091888,8.406110,36.668011
145,0,-135.556213,152.363693,50.186569,-29.893520,65.335754,56.915527,13.383052,36.452499,54.239326,43.108257,8.423912,36.682350
146,0,-135.524353,152.350586,50.222366,-29.896837,65.339142,56.932056,13.397952,36.450806,54.243099,43.118183,8.422705,36.682381
147,0,-135.504517,152.375473,50.246223,-29.875477,65.348412,56.957542,13.453711,36.404514,54.262093,43.117004,8.426704,36.650578
148,0,-135.505859,152.389816,50.264492,-29.862898,65.370697,56.971642,13.469911,36.419838,54.260193,43.155472,8.417615,36.680405
149,0,-135.473602,152.395004,50.263699,-29.811584,65.360985,57.013939,13.463498,36.422058,54.277195,43.150845,8.397852,36.691872
150,0,-135.462250,152.428589,50.270088,-29.785757,65.338066,57.028255,13.496278,36.420639,54.294022,43.141552,8.394654,36.688576
151,0,-135.459076,152.449738,50.311298,-29.779814,65.353813,57.060551,13.503918,36.406624,54.302826,43.173550,8.408666,36.694542
152,0,-135.429749,152.456223,50.305099,-29.770254,65.352821,57.066509,13.538013,36.410267,54.316883,43.154217,8.395310,36.686897
153,0,-135.422760,152.438522,50.285446,-29.767736,65.342728,57.110535,13.544016,36.397446,54.341949,43.167377,8.394202,36.696030
154,0,-135.400238,152.423737,50.316105,-29.760414,65.348892,57.099545,13.537335,36.399433,54.353958,43.146004,8.378524,36.688313
155,0,-135.391434,152.446564,50.320461,-29.764776,65.335014,57.112717,13.527158,36.404449,54.350574,43.157482,8.374152,36.672707
156,0,-135.426483,152.490906,50.311489,-29.767223,65.341316,57.133171,13.522362,36.404701,54.350056,43.136806,8.369585,36.708790
157,0,-135.396210,152.471222,50.332825,-29.767490,65.342590,57.169014,13.546837,36.394867,54.369602,43.153572,8.362552,36.702366
158,0,-135.398590,152.467010,50.310070,-29.770670,65.340157,57.134972,13.535295,36.396080,54.355930,43.163113,8.359417,36.698425
159,0,-135.400406,152.477097,50.280640,-29.750916,65.319206,57.150497,13.510550,36.401974,54.344273,43.157177,8.360409,36.687565
160,0,-135.415329,152.485077,50.265488,-29.785654,65.360619,57.129303,13.502807,36.397614,54.343693,43.160847,8.357388,36.681282
161,0,-135.402222,152.500259,50.257507,-29.770294,65.344414,57.110157,13.540086,36.384521,54.361626,43.154064,8.360372,36.686104
162,0,-135.389114,152.486023,50.233494,-29.793274,65.350204,57.114212,13.527840,36.373425,54.355354,43.153629,8.361088,36.690491
163,0,-135.374374,152.513062,50.200928,-29.795301,65.359871,57.100403,13.503969,36.400013,54.343941,43.144524,8.355057,36.686016
164,0,-135.377472,152.522491,50.184029,-29.765471,65.343582,57.110874,13.518559,36.385590,54.349602,43.132473,8.361051,36.681934
165,0,-135.380554,152.500900,50.155289,-29.771646,65.329727,57.076523,13.535588,36.391033,54.355022,43.149189,8.362340,36.675690
166,0,-135.360580,152.511917,50.140633,-29.769516,65.316307,57.094749,13.486139,36.379227,54.353680,43.140644,8.365737,36.675179
167,0,-135.357468,152.526367,50.132240,-29.816732,65.391190,57.059155,13.498251,36.369984,54.342838,43.144722,8.364613,36.708469
168,0,-135.315842,152.539047,50.136490,-29.802092,65.370781,57.073528,13.521800,36.354912,54.339886,43.146248,8.357741,36.686882
169,0,-135.306320,152.571030,50.146671,-29.773493,65.358315,57.078125,13.545101,36.391361,54.368000,43.147552,8.360280,36.688633
170,0,-135.300812,152.613846,50.153160,-29.762093,65.372482,57.074993,13.496265,36.399605,54.360401,43.146832,8.358502,36.690033
171,0,-135.261978,152.625244,50.134838,-29.765486,65.382339,57.080170,13.527596,36.386410,54.354721,43.133327,8.359067,36.686501
172,0,-135.263229,152.667999,50.117496,-29.783289,65.436424,57.085678,13.565838,36.414867,54.351467,43.150238,8.357474,36.686501
173,0,-135.241364,152.687973,50.093296,-29.764090,65.460190,57.112679,13.541495,36.433617,54.369484,43.161709,8.372501,36.674267
174,0,-135.238403,152.736069,50.119370,-29.720608,65.483200,57.110241,13.566115,36.440460,54.376938,43.158001,8.372174,36.676727
175,0,-135.197418,152.735291,50.074020,-29.730139,65.501434,57.114117,13.573262,36.456184,54.372345,43.149529,8.396284,36.676819
176,0,-135.190842,152.759872,50.027267,-29.753521,65.493736,57.056965,13.567514,36.446358,54.357632,43.155865,8.414244,36.660751
177,0,-135.199478,152.711365,50.037594,-29.722044,65.439598,57.065956,13.562094,36.469208,54.370937,43.184307,8.350727,36.675327
178,0,-135.180145,152.717270,50.004902,-29.719759,65.456207,57.074669,13.562460,36.430447,54.339188,43.165176,8.372272,36.665199
179,0,-135.200180,152.715607,50.020065,-29.717875,65.434425,57.069054,13.546471,36.447845,54.355942,43.170177,8.354449,36.679192
180,0,-135.180435,152.693787,49.990414,-29.774227,65.445175,57.072777,13.550860,36.398659,54.350845,43.153553,8.362072,36.684387
181,0,-135.179718,152.688644,49.974487,-29.746517,65.424500,57.051052,13.544250,36.392490,54.325615,43.148731,8.356781,36.690483
182,0,-135.166718,152.688324,49.958805,-29.718517,65.437279,57.055893,13.560968,36.391682,54.337528,43.181309,8.368980,36.691101
183,0,-135.162506,152.688080,49.946205,-29.742620,65.442780,57.050934,13.561342,36.426022,54.365578,43.179729,8.392121,36.683578
184,0,-135.171249,152.697906,49.962616,-29.734133,65.460526,57.058098,13.558318,36.430824,54.345272,43.182976,8.390963,36.688408
185,0,-135.143921,152.727814,49.961529,-29.742836,65.457825,57.043346,13.572124,36.428055,54.355679,43.168472,8.414618,36.683956
186,0,-135.161148,152.702515,49.936142,-29.742887,65.482620,57.039478,13.553146,36.466553,54.320599,43.185192,8.407423,36.681618
187,0,-135.147430,152.700089,49.935184,-29.719591,65.471748,57.026676,13.567230,36.466091,54.365383,43.197311,8.398087,36.700474
188,0,-135.158157,152.703293,49.926117,-29.750479,65.538132,57.023621,13.565980,36.464806,54.321087,43.202560,8.426173,36.692059
189,0,-135.176178,152.717697,49.899128,-29.747080,65.551102,56.995747,13.560461,36.471737,54.340069,43.191471,8.408689,36.686131
190,0,-135.172592,152.701950,49.880054,-29.727797,65.507584,56.991219,13.563528,36.484241,54.315544,43.185154,8.402933,36.687588
191,0,-135.181381,152.688721,49.878090,-29.811733,65.507172,56.947762,13.530640,36.496532,54.312176,43.172691,8.410084,36.695282
192,0,-135.203369,152.697144,49.879185,-29.805046,65.492851,56.947029,13.490468,36.468678,54.293919,43.153851,8.411847,36.688557
193,0,-135.188400,152.690033,49.846363,-29.815125,65.467133,56.954697,13.502123,36.474483,54.292278,43.113956,8.393987,36.654907
194,0,-135.177780,152.682297,49.855572,-29.819485,65.464638,56.949181,13.473781,36.437183,54.313145,43.149136,8.382045,36.676273
195,0,-135.234802,152.680511,49.850140,-29.828159,65.470314,56.953426,13.464331,36.452103,54.293083,43.124741,8.399133,36.685623
196,0,-135.238968,152.663010,49.863026,-29.842232,65.475342,56.953506,13.445418,36.438194,54.295059,43.100540,8.414050,36.682045
197,0,-135.276993,152.698700,49.843174,-29.857420,65.465996,56.935432,13.451520,36.435429,54.290783,43.100822,8.409463,36.665188
198,0,-135.244049,152.667999,49.861000,-29.865744,65.446167,56.943031,13.463091,36.438587,54.292435,43.096771,8.413781,36.685341
199,0,-135.242523,152.654327,49.867420,-29.855291,65.479233,56.940281,13.416556,36.453529,54.275757,43.085636,8.384070,36.675007
200,0,-135.257385,152.673538,49.895599,-29.881947,65.473282,56.937706,13.459713,36.440556,54.282948,43.070145,8.414667,36.684937
201,0,-135.268509,152.641281,49.898670,-29.881710,65.471214,56.906971,13.397094,36.469097,54.268089,43.109562,8.411801,36.669884
202,0,-135.253220,152.697556,49.898434,-29.880325,65.495598,56.895458,13.441609,36.447475,54.288456,43.068481,8.413297,36.668571
203,0,-135.236954,152.668091,49.886658,-29.854162,65.496208,56.919945,13.486557,36.428848,54.295124,43.090393,8.407395,36.681858
204,0,-135.245239,152.640717,49.901890,-29.889675,65.481369,56.905754,13.456975,36.399242,54.295460,43.090416,8.405222,36.677120
205,0,-135.294418,152.667252,49.912609,-29.878141,65.450050,56.909672,13.429851,36.441219,54.287609,43.062725,8.407740,36.667316
206,0,-135.253052,152.676208,49.922432,-29.902100,65.476006,56.879795,13.443842,36.436188,54.292336,43.056435,8.410647,36.669403
207,0,-135.259232,152.673431,49.947159,-29.890713,65.464317,56.876350,13.432278,36.447433,54.277969,43.069271,8.384110,36.682709
208,0,-135.246185,152.688828,49.950150,-29.900463,65.488358,56.884365,13.434606,36.444313,54.265408,43.022457,8.435186,36.679550
209,0,-135.230896,152.694763,49.946537,-29.899158,65.482620,56.865318,13.428832,36.446499,54.268559,43.026184,8.436967,36.689442
210,0,-135.292038,152.726425,49.931259,-29.889353,65.498001,56.866325,13.454232,36.450356,54.260799,43.031750,8.460513,36.654541
211,0,-135.245071,152.710251,49.925484,-29.905319,65.505844,56.851086,13.397138,36.463657,54.227493,43.022339,8.459040,36.657436
212,0,-135.268082,152.746689,49.933769,-29.899174,65.496132,56.844173,13.448926,36.456978,54.235657,43.005238,8.457415,36.628838
213,0,-135.281677,152.742371,49.922024,-29.877756,65.517738,56.841663,13.393755,36.479645,54.225338,43.029373,8.444234,36.669891
214,0,-135.273911,152.724716,49.941738,-29.867428,65.527763,56.818542,13.403386,36.469025,54.190731,43.018764,8.464530,36.662514
215,0,-135.264954,152.763733,49.915310,-29.894257,65.508423,56.830921,13.427277,36.483383,54.188984,43.034172,8.442557,36.650429
216,0,-135.259109,152.742325,49.894547,-29.899380,65.514160,56.813236,13.438709,36.465237,54.216686,43.018459,8.474174,36.636669
217,0,-135.268295,152.716263,49.864380,-29.893520,65.507423,56.824169,13.391358,36.494934,54.194614,43.006596,8.463136,36.642841
218,0,-135.259171,152.693466,49.856766,-29.892244,65.521072,56.810017,13.414770,36.476063,54.203819,43.043873,8.449541,36.635445
219,0,-135.262192,152.700882,49.846317,-29.894604,65.524628,56.786003,13.400501,36.498741,54.174561,43.039902,8.463901,36.626450
220,0,-135.276184,152.673386,49.827980,-29.895613,65.529678,56.779079,13.365695,36.509026,54.185787,43.020523,8.470599,36.634369
221,0,-135.309677,152.653107,49.774265,-29.901508,65.513535,56.758564,13.398532,36.493481,54.195198,43.044788,8.469597,36.642860
222,0,-135.293869,152.660507,49.760513,-29.905731,65.555946,56.733974,13.359120,36.532253,54.160889,43.051754,8.506233,36.621838
223,0,-135.301208,152.650986,49.722805,-29.920954,65.533058,56.727646,13.344975,36.517555,54.157887,43.038952,8.482716,36.621025
224,0,-135.362930,152.660950,49.681465,-29.943357,65.526382,56.704353,13.365251,36.515053,54.156631,43.044624,8.469217,36.637184
225,0,-135.367584,152.657578,49.664974,-29.967539,65.533287,56.697929,13.344096,36.517673,54.159245,43.034935,8.474996,36.641823
226,0,-135.368942,152.648056,49.610985,-29.970097,65.543175,56.686924,13.327689,36.501110,54.123875,42.997894,8.485531,36.618221
227,0,-135.371948,152.649567,49.607651,-29.982010,65.503052,56.660835,13.333027,36.517853,54.113426,43.009529,8.468093,36.632191
228,0,-135.395111,152.611038,49.575134,-29.990278,65.517853,56.626472,13.329863,36.551346,54.120605,43.034302,8.479342,36.622643
229,0,-135.376740,152.613098,49.558586,-29.980824,65.549164,56.623566,13.320740,36.555504,54.109814,43.033939,8.504570,36.613792
230,0,-135.381882,152.627045,49.538921,-29.981012,65.509483,56.634506,13.287260,36.566456,54.112198,43.045223,8.476959,36.636875
231,0,-135.376541,152.613617,49.549881,-29.970743,65.526588,56.636192,13.310175,36.573864,54.111111,43.034634,8.467741,36.634628
232,0,-135.377670,152.616028,49.517967,-29.960773,65.537224,56.641006,13.351430,36.535500,54.107914,43.033558,8.481262,36.627728
233,0,-135.367706,152.612137,49.523689,-29.945997,65.525978,56.630302,13.353540,36.559475,54.088970,43.055489,8.504480,36.623238
234,0,-135.379166,152.614487,49.521362,-29.943375,65.545334,56.642002,13.357496,36.571983,54.121277,43.051483,8.503673,36.619087
235,0,-135.375015,152.608994,49.518497,-29.930693,65.552803,56.639309,13.369158,36.566147,54.095051,43.051552,8.495254,36.613613
236,0,-135.325531,152.632050,49.575027,-29.907478,65.590523,56.643642,13.359645,36.583107,54.120262,43.054665,8.493961,36.616329
237,0,-135.319412,152.649551,49.540813,-29.903929,65.586716,56.646805,13.359629,36.577820,54.134136,43.046654,8.489610,36.629871
238,0,-135.317520,152.617493,49.568989,-29.902851,65.577393,56.639420,13.375484,36.569180,54.125473,43.063938,8.482634,36.649822
239,0,-135.339142,152.669815,49.577141,-29.904818,65.576973,56.643097,13.354449,36.566303,54.086750,43.059635,8.494617,36.634548
240,0,-135.302246,152.689102,49.576534,-29.898212,65.560768,56.677498,13.364269,36.576660,54.132584,43.043079,8.498368,36.615101
241,0,-135.268036,152.678925,49.604515,-29.906208,65.577225,56.669586,13.364717,36.577866,54.129913,43.055859,8.495217,36.648193
242,0,-135.285721,152.736877,49.599876,-29.898228,65.593925,56.669094,13.403465,36.562504,54.143112,43.046482,8.507903,36.632854
243,0,-135.270355,152.720673,49.631294,-29.866856,65.574097,56.702759,13.395073,36.581795,54.153370,43.041927,8.496325,36.638180
244,0,-135.288666,152.732758,49.603218,-29.884527,65.591255,56.683376,13.389589,36.599403,54.123096,43.039345,8.519327,36.631485
245,0,-135.287125,152.807022,49.583694,-29.892361,65.609352,56.680557,13.410858,36.604641,54.129044,43.033669,8.540381,36.623241
246,0,-135.279922,152.805954,49.581379,-29.870722,65.617584,56.697933,13.392963,36.611061,54.121708,43.046967,8.532711,36.636539
247,0,-135.269440,152.793335,49.574455,-29.874800,65.644417,56.664703,13.400164,36.604221,54.121853,43.033184,8.543365,36.635902
248,0,-135.268860,152.823380,49.574066,-29.874443,65.634392,56.677761,13.410534,36.603531,54.131355,43.037483,8.542518,36.635418
249,0,-135.273239,152.826004,49.537140,-29.886587,65.632721,56.662876,13.387974,36.597809,54.115345,43.050030,8.533829,36.648449
250,0,-135.294357,152.819763,49.543686,-29.891672,65.640388,56.677265,13.399108,36.601490,54.148087,43.056145,8.535373,36.656792
251,0,-135.299789,152.789948,49.528839,-29.882099,65.633728,56.662579,13.386085,36.597363,54.118702,43.040672,8.539664,36.642097
252,0,-135.296753,152.798065,49.504864,-29.916304,65.637413,56.634289,13.394343,36.595833,54.113434,43.038445,8.539683,36.642780
253,0,-135.309814,152.797516,49.473202,-29.896605,65.639259,56.630280,13.385666,36.600700,54.106007,43.051109,8.530335,36.661209
254,0,-135.310562,152.784698,49.452862,-29.901527,65.623993,56.623238,13.366601,36.618420,54.129696,43.042213,8.534180,36.660549
255,0,-135.292007,152.789948,49.418869,-29.904329,65.637238,56.626255,13.354766,36.615898,54.130859,43.036816,8.535284,36.660725
256,0,-135.278671,152.788635,49.385719,-29.901831,65.634392,56.616234,13.371416,36.612492,54.106335,43.045223,8.548213,36.649319
257,0,-135.276245,152.793182,49.345367,-29.898184,65.629852,56.581711,13.349788,36.623577,54.081944,43.050743,8.548437,36.647690
258,0,-135.296051,152.787613,49.302189,-29.908297,65.647598,56.581528,13.380520,36.609085,54.089260,43.035728,8.548913,36.643833
259,0,-135.305389,152.754532,49.281719,-29.929108,65.658173,56.583241,13.347022,36.628059,54.096722,43.039829,8.529279,36.663200
260,0,-135.309662,152.781113,49.263962,-29.931122,65.645111,56.570499,13.355096,36.635506,54.075508,43.039425,8.545334,36.653446
261,0,-135.343262,152.776367,49.254047,-29.927752,65.648445,56.523579,13.357948,36.634029,54.078259,43.040150,8.545874,36.647209
262,0,-135.368271,152.779861,49.225376,-29.942629,65.643143,56.527752,13.314840,36.627674,54.076340,43.011669,8.541631,36.628284
263,0,-135.377670,152.780258,49.232128,-29.985527,65.651276,56.553223,13.317325,36.599865,54.077206,42.961502,8.534671,36.637280
264,0,-135.384705,152.793823,49.227581,-29.978668,65.633240,56.531948,13.237218,36.625324,54.058968,42.943844,8.553525,36.626888
265,0,-135.367554,152.783203,49.234749,-29.979105,65.637672,56.528358,13.226243,36.613960,54.091236,42.945225,8.512365,36.624138
266,0,-135.391891,152.800598,49.256275,-29.988447,65.631218,56.523228,13.203979,36.640903,54.050049,42.940735,8.544713,36.637592
267,0,-135.363937,152.847229,49.235191,-29.972296,65.674156,56.525627,13.180142,36.659466,54.054832,42.925426,8.576593,36.616802
268,0,-135.384064,152.874283,49.220951,-29.964369,65.682617,56.514515,13.051529,36.732635,54.078026,42.925323,8.577523,36.605778
269,0,-135.408066,152.898468,49.193027,-29.967096,65.716583,56.504349,13.066329,36.766380,54.079308,42.921398,8.573181,36.604698
270,0,-135.387650,152.910324,49.152966,-29.961435,65.711006,56.484142,13.059000,36.777004,54.078136,42.921482,8.572143,36.606049
271,0,-135.370636,152.916290,49.138206,-29.965265,65.722488,56.458076,13.050685,36.880714,53.982536,42.951797,8.588416,36.613297
272,0,-135.377808,152.854019,49.124935,-29.951788,65.712769,56.480579,13.013963,36.872726,54.013508,42.954643,8.589349,36.613987
273,0,-135.371094,152.840073,49.102634,-29.961416,65.714264,56.471619,13.010449,36.847538,54.012459,42.960266,8.557130,36.626907
274,0,-135.412369,152.815689,49.046051,-29.954155,65.690865,56.430004,12.974318,36.840141,54.003059,42.940956,8.576442,36.613800
275,0,-135.415649,152.789902,49.023960,-30.012472,65.668831,56.403011,12.953970,36.863991,53.948704,42.946350,8.563992,36.630310
276,0,-135.432251,152.766830,48.988113,-30.016769,65.662407,56.400837,12.936771,36.842136,53.951035,42.935501,8.574398,36.619251
277,0,-135.435852,152.731415,48.986149,-30.027813,65.655678,56.404354,12.895651,36.840084,53.956100,42.881268,8.524396,36.622429
278,0,-135.485733,152.776260,48.944622,-30.039824,65.646233,56.391094,12.895790,36.828537,53.968025,42.899250,8.539062,36.609097
279,0,-135.493073,152.723068,48.894051,-30.041855,65.666557,56.380993,12.890486,36.863647,53.932648,42.895149,8.565536,36.615891
280,0,-135.489212,152.746552,48.860073,-30.032454,65.680946,56.358772,12.853134,36.897987,53.920578,42.892120,8.590281,36.587486
281,0,-135.480759,152.714447,48.857723,-30.023945,65.682007,56.351387,12.862475,36.910358,53.926193,42.893349,8.593731,36.585453
282,0,-135.494751,152.719849,48.852768,-30.004484,65.714447,56.360722,12.859311,36.927185,53.891979,42.919025,8.595689,36.602005
283,0,-135.500046,152.706848,48.823074,-30.000360,65.717453,56.334415,12.865164,36.985649,53.865814,42.929688,8.595823,36.610149
284,0,-135.536285,152.693954,48.774757,-30.002142,65.716766,56.333469,12.875058,36.975910,53.861195,42.897461,8.634242,36.587799
285,0,-135.538086,152.676224,48.737801,-30.025673,65.673561,56.316116,12.887053,36.963203,53.893204,42.917763,8.611496,36.588833
286,0,-135.514786,152.645538,48.726425,-30.032911,65.673073,56.297623,12.850778,36.951237,53.885193,42.917976,8.618990,36.608196
287,0,-135.540558,152.635895,48.698837,-30.058538,65.671783,56.258198,12.869624,36.946533,53.865940,42.903534,8.595790,36.585609
288,0,-135.579742,152.593948,48.661068,-30.063612,65.663948,56.263741,12.858776,36.937618,53.859085,42.896896,8.611362,36.615002
289,0,-135.584259,152.551315,48.645309,-30.055267,65.638451,56.257656,12.907716,36.922974,53.851074,42.906780,8.599574,36.595558
290,0,-135.595642,152.564209,48.619850,-30.082294,65.650208,56.239216,12.904231,36.956535,53.819931,42.893986,8.616077,36.588314
291,0,-135.595688,152.540634,48.591160,-30.106569,65.656387,56.211151,12.902966,36.956478,53.821991,42.876793,8.645665,36.565845
292,0,-135.577271,152.540283,48.593155,-30.101858,65.658310,56.189400,12.904250,36.951496,53.822395,42.839569,8.650024,36.594193
293,0,-135.594467,152.551971,48.559772,-30.107901,65.663116,56.179337,12.878766,36.932835,53.815189,42.862633,8.648187,36.588951
294,0,-135.584030,152.550629,48.562206,-30.116919,65.679428,56.178391,12.881636,36.926018,53.825188,42.843914,8.650724,36.575623
295,0,-135.628006,152.544632,48.543194,-30.112164,65.679207,56.176067,12.914216,36.948193,53.812092,42.832935,8.666314,36.562206
296,0,-135.606445,152.504608,48.519928,-30.089340,65.655563,56.162132,12.854895,36.937912,53.789471,42.847683,8.658347,36.576897
297,0,-135.595825,152.514587,48.510391,-30.102276,65.687614,56.128990,12.887902,36.928699,53.780926,42.852379,8.658862,36.568142
298,0,-135.604507,152.497482,48.506779,-30.089941,65.669525,56.145901,12.879811,36.940666,53.810711,42.852966,8.660957,36.567734
299,0,-135.593719,152.505554,48.479198,-30.097872,65.686531,56.109776,12.895790,36.961700,53.801735,42.865234,8.675926,36.580959
300,0,-135.585342,152.489532,48.471149,-30.060410,65.685585,56.103706,12.914651,36.963421,53.802254,42.883396,8.633027,36.572525
301,0,-135.561462,152.498474,48.450253,-30.067526,65.678925,56.072063,12.923210,36.953686,53.815735,42.868595,8.626560,36.587627
302,0,-135.557510,152.509964,48.440632,-30.058805,65.703239,56.085518,12.924371,36.955620,53.813702,42.910591,8.656179,36.592754
303,0,-135.554092,152.507126,48.439068,-30.071888,65.703987,56.076092,12.927157,36.956444,53.809875,42.913223,8.618327,36.600986
304,0,-135.555832,152.504501,48.416443,-30.076073,65.710846,56.062946,12.933040,36.985840,53.794254,42.885223,8.668880,36.562355
305,0,-135.553467,152.482285,48.391567,-30.069221,65.707199,56.043842,12.918435,36.984688,53.791489,42.900322,8.666487,36.567810
306,0,-135.568634,152.526840,48.361481,-30.065708,65.720184,56.062878,12.941490,36.972027,53.794048,42.895157,8.666367,36.564381
307,0,-135.551910,152.516739,48.360352,-30.071892,65.722824,56.044006,12.956222,37.000858,53.785606,42.914093,8.665268,36.594948
308,0,-135.560928,152.516388,48.362942,-30.067219,65.706245,56.039864,12.941437,36.973614,53.792870,42.895317,8.667998,36.568130
309,0,-135.540039,152.499252,48.349812,-30.071871,65.693733,56.055218,12.934873,36.971207,53.791203,42.905125,8.678782,36.588615
310,0,-135.557831,152.464081,48.349094,-30.076080,65.708984,56.061832,12.945185,36.967514,53.805233,42.917629,8.673787,36.593559
311,0,-135.546280,152.483475,48.341984,-30.044939,65.692589,56.062061,12.960546,36.952549,53.802868,42.915768,8.681667,36.599373
312,0,-135.540604,152.471390,48.357407,-30.063848,65.688309,56.051662,12.965035,36.980789,53.800800,42.917843,8.703574,36.571621
313,0,-135.555450,152.481247,48.351517,-30.039991,65.673210,56.028713,12.991437,36.984200,53.794628,42.917545,8.678759,36.574238
314,0,-135.549545,152.472137,48.374210,-30.034016,65.693604,56.067844,12.985332,36.988213,53.787884,42.943882,8.661472,36.584312
315,0,-135.538071,152.499710,48.347034,-30.007347,65.689766,56.085300,12.981465,36.981022,53.806183,42.945423,8.663971,36.600464
316,0,-135.552048,152.483292,48.387562,-30.014957,65.708427,56.091419,12.981213,36.982681,53.803146,42.950638,8.645909,36.609890
317,0,-135.539352,152.482025,48.395870,-29.991207,65.705307,56.122131,12.976460,36.981438,53.804169,42.954319,8.683087,36.611794
318,0,-135.553879,152.492889,48.422306,-30.048210,65.727615,56.110752,12.998410,36.994106,53.805939,42.942112,8.696174,36.585091
319,0,-135.552353,152.492004,48.423992,-30.032637,65.745003,56.141811,13.001727,36.994854,53.810081,42.937618,8.681641,36.579109
320,0,-135.561249,152.489914,48.415813,-30.061563,65.730804,56.120556,13.010656,36.976051,53.813030,42.934628,8.672944,36.573959
321,0,-135.569397,152.505768,48.437317,-30.011234,65.719566,56.150517,13.010596,36.946259,53.831680,42.963879,8.657560,36.600216
322,0,-135.554276,152.512131,48.453323,-30.034035,65.708908,56.140274,13.024448,36.940403,53.843811,42.923626,8.645609,36.578354
323,0,-135.578781,152.505035,48.479759,-30.002211,65.690788,56.165375,13.038379,36.926842,53.839005,42.947002,8.670007,36.593136
324,0,-135.581009,152.493591,48.508484,-29.954119,65.674141,56.184925,13.036369,36.930035,53.834675,42.972984,8.664558,36.596130
325,0,-135.545425,152.494461,48.508602,-29.966360,65.678757,56.214478,13.046755,36.925476,53.857742,43.003139,8.639690,36.615273
326,0,-135.553772,152.490097,48.523952,-29.974512,65.681099,56.231136,13.043669,36.906952,53.859921,42.977158,8.639771,36.609303
327,0,-135.577271,152.483582,48.530304,-29.953281,65.651253,56.234863,13.065257,36.916084,53.865437,42.997555,8.616293,36.615829
328,0,-135.551651,152.502457,48.544228,-29.980684,65.689537,56.238476,13.061811,36.874454,53.878487,42.972286,8.654830,36.595486
329,0,-135.543518,152.490936,48.573936,-29.951174,65.669899,56.260933,13.076344,36.889919,53.885899,42.981693,8.661695,36.610813
330,0,-135.561829,152.499161,48.597572,-29.944466,65.670425,56.275715,13.076174,36.899418,53.898273,42.985161,8.656824,36.590595
331,0,-135.573441,152.497101,48.609409,-29.929100,65.658661,56.292507,13.093944,36.904743,53.914017,43.012768,8.601780,36.639748
332,0,-135.535019,152.481796,48.658485,-29.928659,65.645424,56.304779,13.082273,36.898834,53.922165,42.999939,8.605542,36.629272
333,0,-135.536575,152.495575,48.678493,-29.927277,65.663811,56.336201,13.056250,36.870132,53.923206,43.014149,8.588631,36.609730
334,0,-135.521988,152.485901,48.695133,-29.927240,65.662956,56.334671,13.082016,36.867657,53.937843,43.006023,8.582447,36.625626
335,0,-135.513657,152.508606,48.710865,-29.945272,65.622292,56.359612,13.105294,36.870655,53.944698,43.027412,8.591874,36.648830
336,0,-135.521027,152.494553,48.733021,-29.962097,65.614838,56.368492,13.101808,36.839516,53.980759,43.003681,8.592949,36.645172
337,0,-135.530319,152.486862,48.741444,-29.983786,65.623840,56.377510,13.092529,36.854664,53.962719,43.032475,8.563846,36.636272
338,0,-135.530670,152.499313,48.767605,-29.973049,65.577652,56.371544,13.096924,36.822720,53.984619,43.006657,8.545113,36.627048
339,0,-135.526276,152.494324,48.787834,-29.955303,65.571991,56.412701,13.095425,36.823174,53.982483,42.994003,8.541826,36.638515
340,0,-135.517487,152.484985,48.802818,-29.954746,65.574516,56.445354,13.101044,36.817448,54.001244,43.030975,8.567785,36.670971
341,0,-135.531525,152.490646,48.840919,-29.919502,65.575592,56.469612,13.120464,36.815998,54.000824,43.027805,8.578938,36.625687
342,0,-135.493286,152.468918,48.871105,-29.914402,65.586563,56.483181,13.089117,36.808231,53.994053,43.027222,8.577911,36.620552
343,0,-135.521576,152.496857,48.896519,-29.921921,65.590401,56.474117,13.137162,36.767963,54.001194,43.030910,8.563192,36.637997
344,0,-135.512604,152.459183,48.920002,-29.892714,65.566841,56.463188,13.128814,36.803123,54.018967,43.029865,8.573304,36.654434
345,0,-135.537247,152.447174,48.931324,-29.895664,65.558678,56.502369,13.116030,36.777775,54.031944,43.032494,8.526617,36.652309
346,0,-135.520691,152.431335,48.947525,-29.897430,65.525848,56.518719,13.081811,36.774792,54.037758,43.029415,8.527971,36.636379
347,0,-135.555496,152.477158,48.995850,-29.926418,65.515213,56.548027,13.077124,36.733471,54.044075,43.012417,8.539157,36.655338
348,0,-135.559052,152.475479,49.011429,-29.957245,65.533485,56.543056,13.096509,36.741714,54.060715,43.037472,8.527259,36.652420
349,0,-135.560333,152.476593,49.012383,-29.958193,65.531273,56.557076,13.100436,36.738071,54.068890,43.031345,8.526384,36.643471
350,0,-135.552643,152.448685,49.030380,-29.937101,65.490601,56.563179,13.084476,36.757355,54.055397,43.010185,8.532396,36.637463
351,0,-135.583466,152.406403,49.030140,-29.929811,65.498352,56.561005,13.103682,36.742836,54.058865,43.023182,8.533725,36.644981
352,0,-135.568130,152.403046,49.027802,-29.927895,65.482841,56.573341,13.101496,36.733879,54.100384,43.028683,8.531976,36.655933
353,0,-135.598587,152.405991,49.013191,-29.939728,65.519501,56.557903,13.108910,36.744148,54.086823,43.039696,8.519399,36.654598
354,0,-135.582840,152.404282,49.039616,-29.934584,65.484962,56.570904,13.088341,36.742542,54.091549,43.014614,8.531590,36.628792
355,0,-135.586960,152.380264,49.055256,-29.980227,65.459068,56.571724,13.076611,36.735516,54.080082,43.031910,8.515395,36.651707
356,0,-135.600723,152.390045,49.024006,-29.977612,65.444160,56.574863,13.078362,36.745037,54.070156,43.038593,8.529728,36.644218
357,0,-135.610825,152.375793,49.030857,-29.961319,65.457077,56.570305,13.068703,36.685448,54.050545,43.020203,8.533621,36.648724
358,0,-135.608704,152.349884,49.040501,-30.014317,65.442955,56.593128,13.047236,36.686790,54.046394,43.005054,8.525625,36.649643
359,0,-135.629318,152.369431,49.051891,-29.997381,65.426445,56.603668,13.050130,36.685493,54.049183,42.949738,8.496059,36.622566
360,0,-135.633072,152.363220,49.066055,-30.028336,65.450668,56.597202,13.041754,36.699718,54.047146,42.942688,8.503796,36.642910
361,0,-135.632401,152.372681,49.082970,-29.990637,65.455551,56.595760,13.021067,36.696220,54.031178,42.941986,8.522824,36.633640
362,0,-135.622894,152.409119,49.026215,-29.989456,65.472458,56.583328,13.026206,36.736366,54.033360,42.971901,8.561135,36.640381
363,0,-135.598602,152.400284,49.025864,-29.996061,65.517128,56.584282,13.063767,36.743660,54.045406,42.960793,8.578372,36.637047
364,0,-135.560562,152.409164,48.968464,-30.002874,65.534233,56.553146,13.062993,36.762096,54.035675,43.003319,8.543463,36.643284
365,0,-135.582047,152.452881,48.934166,-29.992008,65.552635,56.497349,13.071924,36.801044,54.013172,42.982082,8.590955,36.646061
366,0,-135.579468,152.454178,48.877949,-30.011915,65.544762,56.473782,13.051035,36.821625,54.006527,42.984959,8.583306,36.627682
367,0,-135.561142,152.434860,48.836491,-29.983721,65.567657,56.469414,13.043629,36.810421,54.003262,42.986786,8.595313,36.633289
368,0,-135.597687,152.386581,48.794189,-30.011505,65.579636,56.439323,13.038305,36.803684,54.000397,42.958748,8.600929,36.630226
369,0,-135.584625,152.366531,48.754097,-30.005022,65.562172,56.390759,13.031105,36.821770,54.003784,42.964958,8.621349,36.626221
370,0,-135.608307,152.373383,48.681042,-30.033821,65.581963,56.373379,13.009875,36.824886,53.947414,42.953880,8.597656,36.628529
371,0,-135.609146,152.359863,48.578293,-30.058886,65.590286,56.312515,12.980031,36.845974,53.944763,42.949936,8.608088,36.619827
372,0,-135.636429,152.357010,48.502506,-30.070093,65.587364,56.248390,12.957292,36.822865,53.916992,42.945042,8.620868,36.586010
373,0,-135.643890,152.281494,48.422977,-30.101210,65.612488,56.225849,12.940969,36.862965,53.901791,42.921909,8.628521,36.574657
374,0,-135.667831,152.285889,48.353615,-30.106707,65.602829,56.158398,12.896939,36.905445,53.864407,42.909256,8.620568,36.588161
375,0,-135.687927,152.257233,48.276417,-30.140167,65.622787,56.122444,12.902156,36.913475,53.836620,42.902050,8.641781,36.588203
376,0,-135.689529,152.234009,48.189510,-30.155155,65.626350,56.051151,12.882998,36.924316,53.823689,42.868008,8.673336,36.577408
377,0,-135.720520,152.219406,48.099583,-30.208338,65.647827,56.027966,12.869858,36.908726,53.786953,42.883751,8.664281,36.607357
378,0,-135.735168,152.229050,48.000225,-30.212664,65.619133,55.987068,12.847449,36.926605,53.764832,42.840996,8.680070,36.546982
379,0,-135.739410,152.207748,47.936581,-30.228874,65.625565,55.942162,12.818706,36.951962,53.745148,42.821712,8.677121,36.556187
380,0,-135.764404,152.181458,47.816128,-30.243109,65.668144,55.875702,12.816092,36.965981,53.722111,42.818954,8.692092,36.567307
381,0,-135.775391,152.186508,47.709251,-30.256987,65.703712,55.830143,12.779726,37.000904,53.705002,42.810398,8.704854,36.536129
382,0,-135.755783,152.151978,47.581688,-30.311466,65.672432,55.764442,12.737152,37.019268,53.652924,42.807369,8.703016,36.538803
383,0,-135.759872,152.123428,47.498405,-30.324842,65.692955,55.708302,12.705348,37.059731,53.624233,42.803856,8.721774,36.538074
384,0,-135.782959,152.110153,47.396454,-30.391665,65.724991,55.651497,12.682710,37.046173,53.606720,42.755558,8.770020,36.530773
385,0,-135.830353,152.096603,47.294327,-30.463522,65.675797,55.601143,12.634474,37.052120,53.554943,42.708637,8.724937,36.532845
386,0,-135.862900,152.086258,47.224243,-30.526217,65.666557,55.515263,12.593239,37.016735,53.537605,42.663059,8.722386,36.468269
387,0,-135.868256,152.051910,47.186039,-30.572218,65.646919,55.495438,12.521626,36.993435,53.532692,42.625061,8.717959,36.520504
388,0,-135.892609,152.050659,47.109962,-30.620775,65.624046,55.443890,12.461053,37.004978,53.495270,42.571838,8.710742,36.473717
389,0,-135.915695,152.078278,47.033051,-30.662045,65.637657,55.407478,12.446754,37.015678,53.457195,42.559509,8.704167,36.474331
390,0,-136.054962,152.063110,47.090321,-30.730770,65.636436,55.356426,12.413268,37.047165,53.444839,42.524155,8.726297,36.461205
391,0,-136.001816,152.050095,47.000156,-30.769840,65.658699,55.276482,12.387277,37.031517,53.429783,42.496777,8.746203,36.430294
392,0,-136.007904,152.028778,46.941463,-30.815216,65.711815,55.213745,12.353326,37.044205,53.393448,42.486179,8.775185,36.411587
393,0,-135.868210,151.996460,46.674202,-30.848568,65.704742,55.108006,12.292654,37.099117,53.343662,42.445896,8.752065,36.420006
394,0,-135.869690,151.998215,46.558434,-30.894798,65.700867,55.000053,12.261878,37.107643,53.272663,42.438187,8.760056,36.418255
395,0,-135.820160,151.948227,46.386219,-30.956820,65.746315,54.879681,12.221601,37.121365,53.232430,42.378250,8.796754,36.405025
396,0,-135.777771,151.926025,46.235268,-31.031969,65.759995,54.723064,12.161202,37.191021,53.178009,42.364223,8.798845,36.402004
397,0,-135.767105,151.922775,46.126999,-31.099760,65.821739,54.617691,12.100728,37.206730,53.090225,42.347954,8.754094,36.361977
398,0,-135.724976,151.903366,46.045303,-31.148941,65.811424,54.484055,12.017195,37.183048,53.048439,42.324802,8.750911,36.318050
399,0,-135.704895,151.881607,46.094437,-31.217529,65.765961,54.450306,11.994645,37.148121,53.026726,42.263577,8.697906,36.312660
400,0,-135.704071,151.915482,46.252934,-31.255476,65.665604,54.522732,11.975586,37.067822,53.064156,42.251488,8.655580,36.328773
401,0,-135.661896,151.983887,46.634274,-31.167658,65.538246,54.721222,12.028280,36.948406,53.144985,42.302139,8.576035,36.356110
402,0,-135.580963,152.185822,47.182903,-30.987064,65.482498,55.121834,12.150308,36.850868,53.330444,42.399555,8.554169,36.421455
403,0,-135.528778,152.390213,48.128712,-30.598352,65.422989,55.714523,12.398611,36.736759,53.636673,42.636913,8.452930,36.511448
404,0,-135.270157,152.836334,49.342533,-30.112831,65.325958,56.618053,12.823530,36.566792,54.094582,42.972694,8.304412,36.639851
405,0,-134.852707,153.422928,50.892403,-29.363831,65.326508,57.887630,13.445380,36.353321,54.739429,43.422638,8.121490,36.806545
406,0,-134.097931,154.151581,52.727272,-28.391905,65.447327,59.605408,14.378145,36.223541,55.615490,43.862869,7.940230,36.959442
407,0,-133.094757,154.949173,54.922756,-27.087008,65.810265,61.988464,15.669055,35.901081,56.649601,44.404911,7.820313,37.123009
408,0,-131.818054,155.966248,57.332581,-25.465992,66.226326,64.923790,17.292841,35.642986,57.984646,44.770378,7.566184,37.237442
409,0,-130.326859,157.080017,60.155499,-23.513525,66.887497,68.434402,18.960632,35.294750,59.560162,44.626240,6.779029,37.440300
410,0,-128.557251,158.343048,63.235893,-21.055008,67.961319,72.668686,20.437069,34.584141,61.702351,44.183979,5.872199,37.692528
411,0,-126.518578,159.722458,66.663506,-18.107132,69.512833,77.377647,21.852850,34.069965,63.765972,43.521526,5.299107,37.635818
412,0,-123.852371,161.247574,69.965431,-15.069925,71.250847,82.409691,23.621359,33.778313,65.800224,42.507858,5.535298,36.909687
413,0,-120.887146,162.751602,73.465622,-11.525700,73.251312,87.787323,25.623413,33.931919,68.149048,41.939217,6.975055,36.521774
414,0,-117.526146,164.346085,77.009010,-7.758880,75.334312,93.505547,28.332109,35.184078,71.499939,42.800789,9.745721,37.689392
415,0,-114.009850,166.039688,80.722610,-4.173246,77.377510,99.417252,32.317539,37.541222,76.307861,46.755032,12.581188,42.022938
416,0,-110.245354,167.699020,84.418396,-0.564260,79.704399,105.224937,37.155754,40.403019,82.981361,52.255512,15.835623,48.798077
417,0,-106.342987,169.483887,88.324135,3.037955,82.210960,110.907249,42.124416,43.818554,90.545708,58.964890,18.863117,57.357418
418,0,-101.692123,171.017105,92.126678,7.193887,84.789894,116.720993,47.465595,47.532887,98.549744,66.237892,22.034422,66.733200
419,0,-96.862823,172.848526,95.800598,11.588243,87.724770,122.046524,53.106232,50.988293,106.366394,73.450539,25.260544,75.627800
420,0,-91.671188,174.962173,99.502213,16.654133,90.811920,127.374947,58.896217,54.582977,113.408867,80.463608,28.679567,83.534691
421,0,-85.740692,177.132919,103.090324,22.277887,94.191345,132.600006,64.993736,58.203053,119.643753,87.220619,32.267807,90.098816
422,0,-79.278030,179.305527,106.618515,28.671013,97.802315,137.577377,71.584236,61.756737,125.101891,94.103386,35.846703,95.708405
423,0,-72.351715,181.752289,109.914131,35.740036,101.595772,142.322922,78.635460,65.443810,129.799133,101.209999,39.715485,100.250214
424,0,-65.213409,184.630905,112.938889,43.287106,105.498474,146.405685,86.317451,69.315170,133.872208,108.808174,44.023830,103.727386
425,0,-57.561062,186.709229,116.511444,51.379448,109.396744,150.144043,94.659195,73.463341,137.266479,117.313866,48.674240,106.763115
426,0,-49.851620,188.906494,119.684204,59.778233,113.142113,153.283401,103.678734,78.023155,139.947952,126.406075,54.011333,108.843910
427,0,-42.040859,191.391678,122.618645,68.534775,116.780067,155.904984,113.204910,82.727097,141.991653,136.104507,59.651760,110.363434
428,0,-34.520317,193.527039,125.587013,77.359962,120.321159,157.992905,122.845810,87.511711,143.564545,146.187546,65.397964,111.648087
429,0,-27.102310,195.894562,128.611801,86.144035,123.726707,159.797058,132.623169,92.517540,144.721680,156.421982,71.375374,112.493904
430,0,-19.382175,198.019485,130.866486,94.841209,127.176361,161.348648,142.271591,97.476784,145.708328,166.376999,77.373314,113.006424
431,0,-11.660149,200.259079,133.023895,103.408669,130.593338,162.608887,151.641495,102.334854,146.318542,175.907761,83.138268,113.307343
432,0,-3.996666,202.572952,135.098770,111.971695,134.152405,163.730530,160.545670,106.861946,146.804489,184.873260,88.509872,113.267860
433,0,3.963327,204.842468,136.455246,120.349648,137.751663,164.579071,169.240067,111.212631,147.038788,193.448898,93.510414,113.087357
434,0,11.664605,207.304520,137.811676,128.677689,141.440735,165.179321,177.662857,115.409996,146.999619,201.534882,98.394760,112.423340
435,0,19.319908,209.687607,138.835159,136.743866,145.099609,165.487457,185.854904,119.560570,146.713150,209.479767,103.292763,111.541283
436,0,26.657202,212.016907,139.859985,144.769211,148.573044,165.502518,193.959229,123.602730,146.113556,217.256882,107.630890,110.573479
437,0,33.644783,214.210678,140.599899,152.508484,151.781799,165.107117,201.969788,127.615768,145.178665,224.736465,112.243088,108.939926
438,0,40.555401,216.245132,141.188141,159.922424,154.605759,164.429688,209.493958,131.252808,143.726990,232.027664,116.715668,106.982666
439,0,46.921505,218.095886,141.472977,166.955246,157.077682,163.475128,216.725006,134.670181,142.009979,239.157135,120.804482,104.976006
440,0,52.768814,219.772537,142.051056,173.652527,159.328140,162.325653,223.461746,137.751205,140.045990,245.681458,124.681992,102.553284
441,0,58.396912,221.279465,142.240097,179.901306,161.360611,161.105865,229.815063,140.519775,137.914001,251.517303,128.275177,99.868179
442,0,63.745014,222.782288,142.273422,185.868240,163.222351,159.823013,235.716446,143.048828,135.752197,257.088867,131.369659,97.352028
443,0,69.237816,223.938995,141.992508,191.603668,165.030670,158.563644,241.232849,145.224228,133.686401,261.969727,134.164764,94.668739
444,0,74.454147,225.220291,141.695618,196.985397,166.765411,157.151718,246.534409,147.176376,131.610443,266.742065,136.552902,92.209389
445,0,79.450851,226.456909,141.005219,202.214127,168.460175,155.687653,251.548233,148.947647,129.544693,271.484222,138.445557,89.984154
446,0,84.124817,227.645981,140.400925,207.172714,170.095901,154.121704,256.242096,150.571060,127.518311,275.689056,140.243164,87.622849
447,0,88.599571,228.734146,139.710587,211.945175,171.432175,152.519791,260.856171,152.102295,125.480858,280.025360,141.854828,85.399406
448,0,92.570717,229.731598,139.059433,216.404526,172.643066,150.810989,265.255371,153.507538,123.360153,284.326935,143.322861,83.205009
449,0,96.321228,230.610611,138.292053,220.646210,173.618744,149.241394,269.349213,154.760345,121.245468,287.863312,144.779190,80.811172
450,0,100.199707,230.956177,137.558746,224.613800,174.309097,147.764130,273.216949,155.771927,119.219299,291.343018,146.047668,78.612686
451,0,103.544304,231.366379,136.758392,228.253922,174.793137,146.376556,276.704407,156.481125,117.350998,294.684357,146.977173,76.574448
452,0,106.782753,231.558731,135.918335,231.592407,175.052444,145.176254,279.980560,156.856750,115.772835,297.507843,147.616074,74.810165
453,0,109.910324,231.732025,135.040649,234.689346,175.302155,144.052124,283.022430,157.057510,114.433990,300.442841,148.053925,73.259583
454,0,112.949745,231.936569,134.107590,237.669037,175.507416,143.060440,285.831604,157.054886,113.329895,303.209503,148.115540,72.099754
455,0,115.870148,232.063553,133.209641,240.422928,175.646332,142.111053,288.704559,157.091614,112.419601,305.900787,147.927216,71.175697
456,0,118.753510,232.199020,132.169113,243.246735,175.776230,141.109009,291.394104,157.000443,111.476578,308.614319,147.554489,70.278084
457,0,121.702179,232.383606,131.200287,246.038254,175.905792,140.046875,294.022461,156.793411,110.447571,311.343384,147.144516,69.219185
458,0,124.689163,232.503189,130.185974,248.868225,176.038284,138.980423,296.536438,156.527496,109.256821,313.520264,146.698929,68.064629
459,0,127.742188,232.638962,129.175644,251.822357,176.268036,137.839828,299.580627,156.307419,108.226967,316.348969,146.187103,66.959068
460,0,130.459671,232.713989,128.186203,254.688049,176.376923,136.580185,302.290527,156.258240,106.767426,318.995270,146.231140,65.380211
461,0,133.177078,232.622665,127.271118,257.519104,176.420380,135.220520,305.188385,156.506042,105.313835,321.393707,146.552689,63.725777
462,0,135.764435,232.479950,126.343338,260.256989,176.317001,133.815079,307.847748,156.692505,103.616318,324.144623,147.009689,62.069996
463,0,138.162674,232.318604,125.456306,262.777832,176.017654,132.376068,310.502014,156.830383,101.975105,326.905334,147.370392,60.418621
464,0,140.546814,232.032486,124.562469,265.225189,175.703903,131.027420,312.926819,156.796494,100.282204,328.972137,147.604584,58.572548
465,0,142.792801,231.817230,123.598564,267.385010,175.210693,129.679443,315.243195,156.513000,98.877556,330.862793,147.481552,56.882988
466,0,144.939758,231.705780,122.657814,269.505859,174.807358,128.350967,317.089966,155.933289,97.302345,332.543549,146.983261,55.213486
467,0,146.955002,231.562180,121.747955,271.425323,174.382629,127.166595,318.894989,155.235703,95.954552,334.033600,146.302856,53.718555
468,0,148.889053,231.473160,120.803040,273.226471,173.950714,125.843170,320.379944,154.612122,94.251022,335.457153,145.543945,52.209053
469,0,150.707703,231.413727,119.805679,274.985565,173.502075,124.586075,321.881378,153.851944,93.012489,336.797607,144.698380,50.771461
470,0,152.379486,231.248993,118.845970,276.473480,172.963196,123.164680,323.157471,153.235992,91.362007,337.969147,144.027985,49.195934
471,0,153.847610,231.100632,117.942665,277.913330,172.403122,121.790596,324.564056,152.664474,89.948105,339.020355,143.417007,47.442654
472,0,155.213852,230.794617,116.985863,279.111725,171.753113,120.273819,325.540619,151.925797,88.153618,339.829742,142.913925,45.581390
473,0,156.405167,230.589294,116.016884,280.235779,171.047897,118.752510,326.440948,151.250122,86.325775,340.165222,142.572906,43.242973
474,0,157.403259,230.294373,115.070007,281.226654,170.321167,117.172447,327.184570,150.557648,84.348808,340.410431,142.135269,40.950291
475,0,158.334366,229.987625,114.181412,282.118896,169.576248,115.555542,327.823303,149.841278,82.294586,340.262817,141.882507,38.404690
476,0,159.076004,229.781372,113.298973,282.790161,168.765198,114.030182,328.274841,149.089355,80.206696,340.204987,141.743393,36.059048
477,0,159.639969,229.603882,112.379692,283.274323,168.040085,112.653915,328.653809,148.326157,78.706337,340.350891,141.486481,34.304192
478,0,160.109985,229.571075,111.441750,283.655518,167.664703,111.818085,328.989410,148.172318,77.702980,340.541046,141.100769,33.374527
479,0,160.427399,229.648438,110.569275,283.633545,167.401810,111.356583,329.057251,147.635986,77.516319,340.545563,140.658920,33.062267
480,0,160.539215,229.845871,109.781235,283.450500,167.284973,111.173027,328.926605,147.370972,77.633133,340.510864,140.047699,33.224464
481,0,160.615952,230.029602,108.956856,283.045990,167.156738,111.058029,328.689728,146.889938,78.062157,340.459869,139.289352,33.667145
482,0,160.589767,230.292801,108.260498,282.694366,167.099899,111.083397,328.446167,146.575851,78.584274,340.412872,138.560196,34.190937
483,0,160.630188,230.543549,107.601761,282.390076,167.073364,111.079964,328.075623,146.144852,79.001045,340.462585,137.908707,34.754971
484,0,160.661026,230.682144,106.924492,282.068451,167.067413,111.019722,327.916290,145.990158,79.344460,340.701141,137.510101,35.314606
485,0,160.813080,230.775665,106.229431,281.793274,166.955368,110.819160,327.936584,145.971115,79.562065,341.067261,137.373825,35.658016
486,0,160.876953,230.765854,105.522949,281.418152,166.785904,110.493721,327.942780,146.003067,79.604988,341.514496,137.325485,35.894108
487,0,160.868378,230.624832,104.701736,281.049286,166.476288,110.072792,327.890625,145.926010,79.562920,341.922913,137.253281,36.008621
488,0,160.883286,230.465744,103.821526,280.575012,166.130005,109.462662,327.748352,145.744781,79.454872,342.200470,137.103622,36.020294
489,0,160.846527,230.261230,102.930473,280.068085,165.654816,108.864906,327.524719,145.530167,79.321655,342.433746,136.708267,36.101036
490,0,160.703003,230.095688,102.010033,279.439484,165.268021,108.223511,327.176208,145.247040,79.175545,342.555298,136.088287,36.243893
491,0,160.494690,229.959244,101.010765,278.747284,164.823120,107.533379,326.634796,144.817123,78.998322,342.554077,135.275436,36.375725
492,0,160.185608,229.925354,100.006859,278.093567,164.455688,106.744225,325.969391,144.305695,78.797813,342.482880,134.402878,36.626778
493,0,159.865906,229.896133,99.118629,277.335419,164.215576,105.947868,325.420471,144.031052,78.548630,342.348755,133.657593,36.691879
494,0,159.385056,229.961227,98.318077,276.603668,164.050751,105.130089,324.859589,143.944733,78.029816,342.060486,133.165222,36.466805
495,0,158.775620,230.045746,97.575005,276.016815,163.922119,104.281738,324.281616,143.949631,77.400894,341.709381,132.976288,35.989822
496,0,157.937805,230.134140,96.816025,275.414978,163.710220,103.357910,323.672180,143.946915,76.505310,341.274109,133.041183,35.144756
497,0,157.081711,230.257584,96.206902,274.770111,163.551819,102.313522,322.923126,143.916473,75.123726,340.423798,133.324234,33.649055
498,0,156.275604,230.344391,95.512909,273.939423,163.260025,101.046738,322.111450,143.909332,73.259514,339.165649,133.774948,31.421345
499,0,155.510635,230.435410,94.579453,273.192810,163.115158,100.050064,321.134918,143.620117,71.676247,338.621918,133.597977,30.504234
500,0,154.893585,230.755035,93.483681,272.175964,163.651749,99.701164,320.001251,143.586853,72.074989,337.951233,133.231918,31.150700
501,0,154.464996,231.298981,92.467407,271.385956,164.559158,99.659500,319.223785,144.143738,72.457283,337.372742,133.145920,31.779829
502,0,154.178925,232.030563,91.725082,270.981659,165.682907,99.606728,318.789612,145.024796,72.776970,337.101562,133.381943,32.352074
503,0,154.078354,232.853195,91.077393,270.867004,166.973999,99.640564,318.697571,146.102509,72.897095,337.005371,133.936401,32.744503
504,0,154.148926,233.797684,90.661209,271.101929,168.460205,99.818443,318.952820,147.401764,73.099236,337.054413,134.703918,33.131588
505,0,154.422531,234.647308,90.394829,271.541870,169.871201,100.162392,319.281342,148.747177,73.399757,337.143036,135.531891,33.471802
506,0,154.721970,235.304962,90.265076,272.286591,170.923767,100.751503,319.807739,149.869019,73.615784,337.315308,136.573380,33.614933
507,0,154.975845,235.772736,90.311600,272.604858,171.654007,101.089844,320.301270,150.846924,73.556580,337.510223,137.809860,33.495564
508,0,155.199493,236.035187,90.631584,272.884644,172.084122,101.482178,320.508942,151.687073,73.545090,337.645630,138.906342,33.361202
509,0,155.360519,236.223694,91.018700,273.061554,172.423370,102.092987,320.699890,152.082962,73.793045,337.587311,139.811066,33.472008
510,0,155.542175,236.433182,91.542114,273.188263,172.792603,102.827171,321.023163,152.444244,74.315903,337.584595,140.489426,33.878403
511,0,155.730896,236.638977,92.093948,273.322510,173.191269,103.777061,321.045135,152.704880,75.022820,337.597290,141.056259,34.558132
512,0,155.923630,236.966278,92.751373,273.391418,173.716141,105.033463,321.203094,153.236252,76.224464,337.646851,141.477859,35.844250
513,0,156.013260,237.391235,93.551216,273.348785,174.355148,106.542168,321.159515,153.715744,77.921936,337.713226,141.663330,37.703541
514,0,156.041443,237.804199,94.531990,273.198029,175.101547,108.433548,321.135895,154.177780,80.090645,337.593658,141.715897,40.004654
515,0,155.886810,238.138367,95.734863,272.786285,175.799728,110.672920,320.834137,154.663635,82.611031,337.414581,141.788849,42.803638
516,0,155.392014,238.353043,97.272881,272.099548,176.222076,113.286499,320.279297,155.022385,85.511032,337.007019,141.899460,45.900440
517,0,154.377640,238.535248,99.230751,270.980743,176.470612,116.201851,319.322571,155.281601,88.720848,336.200897,141.972504,49.326916
518,0,153.015640,238.549866,101.409195,269.405396,176.527603,119.559441,317.980438,155.306625,92.464378,335.155273,141.798355,53.301254
519,0,151.338013,238.616516,103.781372,267.465424,176.419174,123.262177,316.115570,155.119019,96.697296,333.498016,141.306503,57.737190
520,0,149.226746,238.798340,106.325645,264.977356,176.434158,127.301765,313.644379,154.750656,101.313065,331.500763,140.504410,62.611980
521,0,146.825516,238.910080,109.058777,262.017273,176.532776,131.595520,310.665619,154.155685,106.208038,328.818909,139.419403,67.844604
522,0,144.049255,239.052841,111.958992,258.670959,176.384567,136.103149,307.300690,153.381058,111.203575,325.739288,138.168793,73.198563
523,0,140.778763,239.200180,114.870888,254.714523,175.982880,140.463287,303.611237,152.429077,116.273735,322.128113,136.786865,78.590576
524,0,137.101547,239.331558,117.907372,250.429092,175.388718,144.913132,299.261414,151.323593,121.192757,317.925934,135.344910,83.749199
525,0,133.066010,239.426376,120.841408,245.571869,174.704483,149.113373,294.313721,150.141281,125.994324,313.239044,133.948273,88.689575
526,0,128.495499,239.619843,123.767258,240.380753,174.131805,153.271576,289.110413,148.986069,130.588455,308.146210,132.591644,93.390610
527,0,123.623642,239.916046,126.528442,234.763062,173.527191,157.119415,283.359406,147.914261,134.850616,302.713928,131.237686,97.982643
528,0,118.407059,240.366669,129.046417,229.029312,173.085770,160.773911,277.344574,147.021088,138.894562,296.921173,130.101929,102.210808
529,0,112.965591,240.956894,131.425522,223.033051,172.920120,164.115356,271.222778,146.267120,142.511124,290.788513,129.125092,105.909660
530,0,107.422180,241.628250,133.335403,216.787445,172.875946,167.139511,264.804901,145.702698,145.758102,283.970337,128.035309,109.202728
531,0,101.382614,242.563446,135.274063,210.471802,172.978409,169.745438,258.284210,145.342880,148.490448,277.338867,127.329483,112.045547
532,0,95.324646,243.552917,136.758148,204.050339,173.296967,171.929398,251.444077,145.119431,150.699295,270.198822,126.982330,114.111626
533,0,89.106171,244.771744,137.988007,197.431259,173.761719,173.642151,244.614395,144.897354,152.456146,262.898376,126.464767,115.793869
534,0,82.905663,245.952927,138.888184,190.746155,174.216736,174.996109,237.614044,144.794632,153.725845,255.434875,125.934555,117.030365
535,0,76.425194,247.262161,139.646118,184.204147,174.610016,175.956070,230.497070,144.685196,154.510956,248.013657,125.603317,117.745262
536,0,69.957535,248.440445,140.009781,177.413361,175.031036,176.466324,223.437836,144.677368,154.840134,240.626099,125.464600,117.944389
537,0,63.383335,249.600159,140.228165,170.693375,175.399918,176.685379,216.460373,144.676620,154.816055,233.294617,125.587715,117.759720
538,0,56.756115,250.659286,140.007263,163.739151,175.770447,176.397903,209.411301,144.799393,154.374710,225.999130,125.810783,117.140343
539,0,50.327156,251.565155,139.577545,157.002747,176.207062,175.804932,202.290100,144.968903,153.523605,218.607773,126.093567,116.184349
540,0,43.900761,252.448135,138.762100,150.309479,176.591522,174.862274,195.472061,145.051865,152.285583,211.448685,126.432373,114.674980
541,0,37.583412,253.449356,138.190979,143.745300,176.899872,173.516144,188.643890,145.170837,150.665665,204.322250,126.686333,112.839699
542,0,31.149622,254.557617,137.221405,137.492630,177.161728,172.037125,182.030273,145.197647,148.672195,197.316376,126.886833,110.583405
543,0,25.381365,255.353241,136.147568,131.352554,177.360641,170.155273,175.650864,145.279175,146.349716,190.590866,127.234268,107.982712
544,0,19.510771,256.118622,134.969894,125.577255,177.559387,168.163864,169.467300,145.339172,143.740112,184.101715,127.652359,105.144508
545,0,13.828075,256.826843,133.672302,119.885971,177.839386,165.975510,163.580078,145.655090,141.055756,177.820206,128.279526,102.125000
546,0,8.554827,257.577576,132.059769,114.540497,178.256866,163.732025,158.148422,146.052170,138.327057,171.876404,128.951431,98.962631
547,0,3.161125,258.058533,130.815643,109.496468,178.688004,161.347870,152.660202,146.571243,135.384094,166.312241,129.746017,95.896477
548,0,-1.718095,258.764008,129.339172,104.753906,179.139130,158.924927,147.738678,147.179626,132.503662,161.098251,130.547211,92.713997
549,0,-6.361259,259.520508,127.897339,100.346649,179.730743,156.378448,143.033249,147.729752,129.428177,156.118332,131.363953,89.484924
550,0,-10.695692,260.183533,126.527489,96.294609,180.152832,153.855957,138.652084,148.307892,126.346428,151.464798,132.284698,86.203766
551,0,-14.712070,260.743805,125.151588,92.571472,180.553925,151.444992,134.680054,148.958511,123.242546,147.278290,133.312439,82.846672
552,0,-18.369879,261.219635,123.591965,89.117958,180.976486,149.058167,130.971481,149.624252,120.256294,143.303452,134.462097,79.570557
553,0,-22.038185,261.833282,122.552681,85.867355,181.535278,146.760239,127.636864,150.413208,117.517944,139.805481,135.584061,76.745201
554,0,-25.472340,262.545837,121.368233,82.911270,182.150620,144.660553,124.659973,151.314041,115.084076,136.706024,136.841537,74.095352
555,0,-28.388687,263.032104,120.034958,80.336815,182.919403,142.641464,122.059547,152.385590,112.758904,134.154190,138.152542,71.725441
556,0,-30.848072,263.575531,118.779747,78.071198,183.806183,140.748428,119.788300,153.542419,110.602280,131.953278,139.507660,69.607422
557,0,-33.095829,264.148651,117.641930,76.034050,184.744568,138.950012,117.924133,154.805237,108.577332,130.068634,140.903946,67.596062
558,0,-35.219982,264.730316,116.603500,74.342278,185.776825,137.173569,116.310593,156.208832,106.637215,128.543976,142.444931,65.674690
559,0,-37.015301,265.241577,115.571533,72.970688,186.742645,135.582245,114.931717,157.531952,104.714081,127.370445,144.001572,63.851208
560,0,-38.862267,265.822266,114.802559,71.775215,187.737595,134.016342,113.882118,158.981735,102.826286,126.173737,145.729950,61.875114
561,0,-40.376797,266.280975,114.046745,70.733505,188.635986,132.588943,112.765587,160.333954,100.995827,125.200333,147.354309,60.061333
562,0,-41.671230,266.808197,113.288986,69.708534,189.450958,131.126160,111.812042,161.552292,99.249359,123.908958,149.485489,57.761208
563,0,-43.081539,267.236938,112.698151,68.761986,190.145996,129.898376,110.935623,162.678421,97.633293,122.994125,150.937332,56.112064
564,0,-44.183685,267.628235,112.132690,68.015213,190.790985,128.818680,110.096817,163.647598,96.182861,122.167801,152.344635,54.546474
565,0,-45.140705,267.965668,111.588562,67.237541,191.433060,127.828423,109.359268,164.540558,95.036461,121.556534,153.408401,53.396877
566,0,-45.878181,268.319275,111.080414,66.645508,192.070236,126.992630,108.691856,165.280731,94.084091,120.814507,154.205124,52.460957
567,0,-46.565567,268.648743,110.664948,66.225365,192.715454,126.194221,108.099274,165.948608,93.165428,120.097183,154.828278,51.529919
568,0,-47.077477,269.032135,110.232605,65.813545,193.298019,125.282425,107.443596,166.440628,92.172058,119.484200,155.230972,50.577965
569,0,-47.526402,269.508698,109.900276,65.599243,193.820877,124.388428,107.019493,166.860077,91.101768,118.833122,155.560944,49.447342
570,0,-47.849689,269.918854,109.489738,65.492081,194.293945,123.448372,106.630371,167.231140,89.842590,118.048508,155.859207,48.146915
571,0,-48.071404,270.252747,109.037086,65.382484,194.620911,122.434822,106.151451,167.480148,88.528366,117.353165,156.015762,46.860603
572,0,-48.313450,270.526703,108.555840,65.174789,194.821793,121.253021,105.817474,167.696030,87.136909,116.581909,156.314545,45.312889
573,0,-48.663776,270.687744,108.034363,64.923515,194.907898,120.106438,105.330032,167.865250,85.586769,115.972038,156.646027,43.736454
574,0,-49.086304,270.708618,107.546707,64.547523,194.796127,118.818504,104.862617,167.959030,84.036110,115.296204,157.062469,41.930618
575,0,-49.795029,270.686279,107.156364,64.031906,194.582901,117.482491,104.194977,167.959579,82.341797,114.371460,157.554642,40.090157
576,0,-50.526428,270.695984,106.699448,63.476093,194.155487,116.282913,103.437912,167.959976,80.652428,113.442154,158.050140,38.203007
577,0,-51.277256,270.722992,106.222504,62.776402,193.993027,114.818985,102.580841,167.943314,78.868568,112.347931,158.460861,36.239456
578,0,-52.055183,270.865509,105.803627,62.149605,193.933258,113.366875,101.839302,167.960419,77.113747,111.139961,158.862930,34.167236
579,0,-52.978737,271.130554,105.498627,61.648140,193.919174,111.947861,100.973053,168.017242,75.181580,109.748589,159.243835,32.112663
580,0,-53.631508,271.442657,105.141968,61.125858,193.950699,110.551422,100.242218,168.004410,73.403915,108.372849,159.406219,30.038509
581,0,-54.266346,271.824219,104.586739,60.616230,194.034973,109.246529,99.487785,167.955597,71.797531,107.250320,159.450241,28.278208
582,0,-54.825756,272.181915,103.924789,60.050453,194.443787,108.525772,98.915932,168.448044,71.162865,106.784309,159.242798,27.959721
583,0,-55.409847,272.584320,103.365738,59.473846,195.234558,108.372925,98.473129,168.838989,71.416702,106.152077,159.278122,28.186152
584,0,-55.962402,273.119629,103.029198,58.948513,195.924026,108.331055,97.809479,169.250519,71.725433,105.837868,159.220291,28.605993
585,0,-56.456028,273.406952,102.844574,58.565357,196.447128,108.284027,97.575897,169.811920,71.776657,105.859238,159.653671,28.842257
586,0,-56.967419,273.642395,102.739143,58.373100,196.922180,108.237312,97.666550,170.613510,71.850616,106.011932,160.289856,29.015095
587,0,-57.462753,273.853363,102.550392,58.242786,197.450455,108.212502,97.730087,171.352066,71.888794,106.125694,160.979935,29.064695
588,0,-57.806839,274.082764,102.356247,58.144859,197.905396,108.133591,97.720879,171.940002,71.832542,106.253830,161.664429,29.039263
589,0,-58.145199,274.174194,102.190681,58.136227,198.263000,107.969910,97.825546,172.592972,71.643417,106.446320,162.363129,28.901472
590,0,-58.404221,274.232452,101.951134,58.041267,198.620056,107.777176,98.145325,173.184723,71.560097,106.725563,163.018219,28.747234
591,0,-58.617142,274.296112,101.677116,57.991726,198.880402,107.627121,98.248878,173.793884,71.394691,107.013092,163.494431,28.662766
592,0,-58.761475,274.364349,101.400185,57.959446,199.173599,107.486855,98.433922,174.074432,71.399879,107.177467,163.753296,28.646025
593,0,-58.937397,274.455872,101.130531,57.929165,199.408676,107.400391,98.491241,174.383759,71.340683,107.289177,163.910339,28.640703
594,0,-59.085342,274.504639,100.849861,57.887478,199.581116,107.280846,98.504723,174.651154,71.232033,107.441895,164.012802,28.647856
595,0,-59.200241,274.530762,100.577576,57.864677,199.727875,107.149529,98.615700,174.901520,71.155968,107.649857,164.213516,28.630301
596,0,-59.362217,274.582916,100.341614,57.878971,199.911438,107.073280,98.823700,175.143509,71.119995,107.863754,164.431992,28.612442
597,0,-59.508743,274.689240,100.201637,57.948341,200.091660,107.031334,98.962891,175.500977,71.040665,108.049194,164.619034,28.630182
598,0,-59.759457,275.005890,100.042084,58.150143,200.328766,107.070953,98.992958,175.998413,70.857712,108.277687,164.880310,28.639902
599,0,-59.832024,275.019104,100.079712,58.314880,200.542145,107.156860,99.334221,176.350769,70.818413,108.533501,165.189331,28.654802
600,0,-60.064163,274.971741,100.270851,58.487835,200.700226,107.329178,99.360435,177.064835,70.592827,108.694473,165.486771,28.781542
601,0,-60.308537,274.961792,100.544930,58.557667,200.804871,107.641365,99.515442,177.150024,70.813972,108.790627,165.832520,28.984457
602,0,-60.553833,274.935791,100.792976,58.491642,200.827667,108.117928,98.858673,177.996536,70.473480,108.646217,165.949066,29.312737
603,0,-61.023418,274.859161,101.133194,58.421600,200.752869,108.624733,98.541565,177.900543,70.613609,108.406212,165.845947,29.806103
604,0,-61.431282,274.745880,101.523438,58.221073,200.572983,109.213181,98.298973,177.392456,71.088257,108.120476,165.658020,30.321152
605,0,-61.912048,274.466217,101.839676,57.887356,200.259064,109.857193,97.754906,177.285324,71.460045,107.891617,165.343338,31.026245
606,0,-62.424419,274.103607,102.222206,57.448082,199.828796,110.560799,97.609863,176.487488,72.511406,108.028458,164.908340,32.158142
607,0,-62.994057,273.643829,102.621071,56.941616,199.279175,111.301071,97.157654,176.291885,73.306084,108.278008,164.419739,33.587620
608,0,-63.629173,273.010193,103.028458,56.331398,198.624496,112.048225,96.986748,175.739487,74.516373,108.756828,163.882065,35.184467
609,0,-64.254700,272.317749,103.537178,55.731659,197.839645,112.887917,96.860634,175.021378,75.912498,109.481255,163.348022,37.031670
610,0,-64.917465,271.420380,103.983910,55.082630,197.005005,113.814491,96.381638,174.801682,77.032005,110.191696,162.835541,38.880165
611,0,-65.780449,270.505859,104.686890,54.472672,196.082291,114.803993,96.231750,174.051163,78.619286,110.943092,162.274567,40.948963
612,0,-66.641922,269.508728,105.642662,53.840797,195.113770,116.042915,96.177994,173.379822,80.281952,111.539696,161.792404,43.128246
613,0,-67.542259,268.342621,106.462402,53.078434,194.037476,117.397652,95.798111,173.042526,82.076553,112.301926,161.261810,45.527584
614,0,-68.749031,267.159515,107.478630,52.345955,193.022614,119.081642,95.477470,172.164200,84.380737,113.007500,160.544998,48.360558
615,0,-69.779556,265.738159,108.580002,51.393482,191.730118,121.059921,95.270088,171.060059,87.150505,113.647964,159.485809,51.528755
616,0,-70.648193,264.087708,109.627312,50.245468,190.239075,123.137405,94.824753,169.641006,90.235939,114.475739,157.687012,55.400753
617,0,-71.538567,262.386963,110.748528,49.117542,188.612701,125.576126,94.266541,167.869003,93.735313,114.626846,155.972290,59.194443
618,0,-72.509720,260.551056,111.839531,47.779316,186.848785,128.267319,93.475960,165.765244,97.507957,114.453499,153.821228,63.269371
619,0,-73.356094,258.626007,113.066574,46.428860,184.788422,131.190659,92.529114,163.247833,101.582367,113.998627,151.073837,67.668442
620,0,-74.295052,256.494232,114.190094,45.013432,182.425903,134.421753,91.302139,160.472778,105.579842,113.303909,147.837997,72.156380
621,0,-75.234215,254.281189,115.297546,43.304367,179.901764,137.573547,89.949028,157.306061,109.663216,112.334549,144.122055,76.653854
622,0,-76.113434,251.870148,116.488861,41.416145,177.225586,140.689072,88.274605,153.788681,113.659172,111.086197,139.938629,81.116539
623,0,-77.024284,249.257751,117.550003,39.632404,174.177994,143.740662,86.708755,149.880188,117.673370,109.649101,135.116425,85.609520
624,0,-77.954216,246.433517,118.588989,37.834419,170.844696,146.711761,84.774002,145.600281,121.419281,107.903748,130.284973,89.800491
625,0,-78.929985,243.363831,119.518707,35.926579,167.164627,149.425171,82.768593,140.950378,124.943367,106.137932,124.481483,94.292007
626,0,-79.852890,240.099365,120.324120,33.812466,163.320129,151.952332,80.772903,136.079788,128.383484,104.046837,118.901878,98.077927
627,0,-80.885429,236.704102,120.902534,31.741385,159.211502,154.285812,78.327576,130.982529,131.492508,101.681519,113.132545,101.698875
628,0,-81.909447,233.167236,121.421310,29.549604,154.956070,156.293793,75.804222,125.693054,134.311401,99.199707,107.125465,104.928818
629,0,-82.966393,229.498306,121.691841,27.249981,150.503723,158.009628,73.215012,120.246689,136.843903,96.548798,100.997849,107.890640
630,0,-83.980247,225.872040,121.826065,25.106152,145.914169,159.466873,70.630699,114.709831,138.977570,93.911453,94.754539,110.487755
631,0,-85.058167,222.065674,121.807030,22.841068,141.270279,160.570663,67.946671,109.095795,140.766708,91.236832,88.555336,112.598160
632,0,-86.139099,217.968140,121.554802,20.677711,136.571960,161.406158,65.333099,103.553452,142.090652,88.452423,82.380844,114.369446
633,0,-87.341377,213.816391,121.149734,18.537355,131.738235,161.795044,62.762165,98.037834,143.122116,85.612152,76.410461,115.388329
634,0,-88.459686,209.838348,120.594749,16.394012,126.938911,161.747910,60.203384,92.569778,143.703293,83.014511,70.350807,116.365280
635,0,-89.549248,206.515656,119.992058,14.314857,122.278099,161.726746,57.797039,87.154457,143.860458,80.314415,64.546608,116.665955
636,0,-90.469467,203.051376,119.206017,12.469965,117.689331,161.362015,55.503204,81.845192,143.673630,77.530144,58.967930,116.364159
637,0,-91.547813,198.920685,118.282845,10.685885,113.173874,160.710709,53.310158,76.668152,143.088898,75.088692,53.459782,115.918236
638,0,-92.605659,194.488739,117.034439,9.073237,108.800034,159.817261,50.989246,71.895004,142.126831,72.690414,48.310669,114.985298
639,0,-93.590828,190.655884,115.888756,7.664785,104.530197,158.604843,49.189529,67.240807,140.877289,70.451508,43.493580,113.531830
640,0,-94.686874,187.893402,114.452576,6.295631,100.380936,157.034988,47.612072,62.820694,139.349487,68.697166,38.734200,112.109520
641,0,-95.490242,184.134262,112.795784,5.271574,96.435783,155.292664,46.106117,58.520706,137.417694,66.945290,34.271950,110.167557
642,0,-96.190002,180.846771,111.241310,4.215106,92.594170,153.188583,44.823345,54.373989,135.251816,65.306129,29.927763,107.942177
643,0,-96.742157,178.076187,109.689331,3.415777,88.934303,150.998962,43.604599,50.418552,132.709854,63.817463,25.854620,105.279968
644,0,-97.367233,175.094650,107.973015,2.765219,85.451141,148.548599,42.560101,46.674690,129.920837,62.479950,22.110546,102.327782
645,0,-97.878563,172.213303,106.252380,2.323055,82.185242,146.094284,41.794697,43.342541,126.955154,61.453102,18.835594,99.117104
646,0,-98.458992,169.337769,104.480713,1.984146,79.230133,143.490585,41.260292,40.406410,123.912399,60.634220,16.123228,95.726799
647,0,-98.991081,166.728653,102.737312,1.749910,76.556900,140.944275,40.994118,37.866329,120.854408,60.199474,13.737012,92.504852
648,0,-99.668900,164.685791,101.117874,1.455087,74.216209,138.320786,40.774868,35.711414,117.863838,59.779236,11.707006,89.366524
649,0,-100.033432,162.396973,98.868187,1.316540,72.194450,135.764587,40.644154,33.868786,114.981567,59.589622,9.928932,86.362343
650,0,-100.680298,160.623016,97.261299,1.057726,70.389908,133.229202,40.440807,32.180637,112.257179,59.132343,8.383080,83.351364
651,0,-101.063614,158.912506,95.263611,0.934651,68.850075,130.835297,40.252659,30.700323,109.613823,58.671070,6.953208,80.394272
652,0,-101.264961,157.603271,93.228958,0.805623,67.578018,128.407944,40.038277,29.307013,107.052048,58.226067,5.371281,77.933891
653,0,-101.523758,156.162338,91.121208,0.778045,66.508850,126.018791,39.754570,28.073513,104.536591,57.580975,4.002645,75.199921
654,0,-101.787674,154.979385,89.282265,0.747862,65.618530,123.487579,39.482105,26.977367,101.859230,56.867847,2.904890,72.206642
655,0,-102.111031,153.723557,87.250404,0.794302,64.839211,120.909683,39.103870,26.088949,98.816208,56.306816,1.846065,69.286949
656,0,-102.555702,152.809906,85.461250,0.801240,64.039856,118.215042,38.986954,25.355955,95.862984,56.000275,1.109858,66.212166
657,0,-103.076912,151.770065,83.740715,0.715846,63.261799,115.501984,38.912952,24.761454,92.719612,55.863464,0.524565,63.084057
658,0,-103.879868,150.883026,81.991570,0.460661,62.425606,112.782982,38.659142,24.195580,89.500450,55.515266,0.186194,59.629829
659,0,-104.713486,150.101181,80.331451,-0.110950,61.405006,110.026634,38.173340,23.688156,86.271614,54.842712,0.070033,55.947472
660,0,-105.693855,149.430817,78.622025,-0.721383,60.729370,107.342819,37.525944,23.245306,83.093483,54.020012,-0.153232,52.594246
661,0,-106.737091,148.957581,76.818733,-1.526599,60.162479,104.756546,36.593987,22.839611,80.048615,52.918552,-0.413858,49.347618
662,0,-107.720596,148.593826,74.768250,-2.483956,59.783352,102.165718,35.465759,22.456350,77.113602,51.538677,-0.794365,46.277134
663,0,-108.618721,148.148849,72.910622,-3.510201,59.433064,99.629875,34.195560,22.078461,74.351776,49.953247,-1.267674,43.379303
664,0,-109.670074,147.895920,70.836838,-4.465816,59.183392,97.065804,32.836266,21.680717,71.508980,48.169155,-1.825468,40.422520
665,0,-110.614861,147.688461,68.645668,-5.548583,59.004700,94.413803,31.350088,21.205584,68.578835,46.417728,-2.431530,37.366280
666,0,-111.544044,147.627838,66.482620,-6.831296,58.941753,91.449516,29.764877,20.538326,66.084846,44.906940,-3.750012,35.798824
667,0,-112.438042,147.497391,64.152077,-8.177239,59.082020,88.471237,28.168711,20.635807,65.738266,44.785400,-4.952298,36.374836
668,0,-113.326820,147.402771,61.908733,-9.735754,59.316452,85.286926,27.251434,20.660048,64.102295,44.269672,-5.641080,36.027336
669,0,-114.315544,147.390778,59.705120,-10.943515,59.404865,82.300018,26.065647,20.960403,63.071304,43.686455,-6.500284,36.078632
670,0,-115.289368,147.380524,57.682114,-12.187399,59.543472,79.479477,24.776634,21.068939,62.060390,43.146187,-6.945244,36.100140
671,0,-116.281067,147.386368,55.775871,-13.345901,59.745811,76.684532,23.663040,21.393560,61.026276,42.643162,-7.231822,36.063900
672,0,-117.501694,147.476547,54.013718,-14.593264,60.005714,74.166191,22.504175,21.909021,60.070969,42.111942,-7.178308,36.003098
673,0,-118.775055,147.610550,52.284931,-16.286486,60.473820,71.816772,21.352457,22.564932,59.142426,41.568790,-6.747619,35.913940
674,0,-120.125076,147.777267,50.827682,-17.936121,61.160488,69.893600,19.733103,23.850361,57.872303,40.881657,-6.086547,35.723381
675,0,-121.438240,148.017715,49.531189,-19.470333,61.655716,68.232811,18.426268,24.504086,56.908688,40.029697,-5.615619,35.447521
676,0,-122.621498,148.245941,48.446571,-20.853464,62.119030,66.755051,17.122427,25.091768,56.044262,39.074936,-5.293192,35.235523
677,0,-123.426277,148.490158,47.345219,-21.694408,62.827377,65.475639,16.209736,25.766378,55.257980,38.473019,-4.723475,35.008591
678,0,-124.063293,148.736008,46.383133,-22.473574,63.322395,64.353783,15.574572,26.377312,54.486698,37.967762,-4.044294,34.717258
679,0,-124.529465,148.796387,45.614304,-23.301941,63.705990,63.443253,14.922043,26.869101,53.909595,37.478844,-3.416383,34.443123
680,0,-124.893234,148.844101,45.054508,-24.206310,63.821384,62.718861,14.261559,27.045761,53.498135,36.802063,-2.848212,34.142548
681,0,-125.358238,149.125061,44.780449,-24.852304,63.901543,62.233540,13.610416,27.097719,53.180340,36.362255,-2.589648,33.971661
682,0,-125.510635,148.901001,44.530998,-25.216682,63.800686,61.980331,13.192952,27.024960,53.015141,36.093952,-2.592534,33.889133
683,0,-125.543159,148.671631,44.439774,-25.500544,63.668781,61.870560,13.001301,26.987440,52.930626,36.020588,-2.634847,33.860119
684,0,-125.517189,148.362579,44.475586,-25.664518,63.438766,61.838810,12.952771,26.818741,52.944286,35.914940,-2.684336,33.818523
685,0,-125.443665,148.102814,44.651043,-25.664293,63.233219,62.018879,12.958544,26.675013,53.030407,35.999104,-2.783281,33.856861
686,0,-125.288773,147.901871,44.901619,-25.507299,63.082420,62.288143,13.099853,26.556152,53.153469,36.056072,-2.896689,33.865364
687,0,-125.102341,147.697922,45.281548,-25.239651,62.985928,62.629677,13.327728,26.476419,53.344086,36.193584,-2.941161,33.894821
688,0,-124.988976,147.679352,45.669239,-25.039509,62.895573,62.954494,13.553465,26.386950,53.532520,36.343006,-2.952955,33.980530
689,0,-124.947205,147.772171,46.106857,-24.787745,62.812096,63.237347,13.774452,26.374506,53.656696,36.490639,-2.978264,34.041603
690,0,-124.795105,147.906143,46.446083,-24.558466,62.804424,63.471786,13.957522,26.386379,53.782520,36.698299,-2.974908,34.154575
691,0,-124.583351,148.038742,46.713448,-24.345955,62.818378,63.651310,14.180916,26.406389,53.881393,36.800304,-2.924679,34.184254
692,0,-124.370918,148.170380,46.909435,-24.116251,62.883308,63.745537,14.377975,26.497725,53.929115,36.939789,-2.862477,34.174328
693,0,-124.177666,148.291245,47.011135,-23.865488,63.007668,63.802361,14.572695,26.560032,53.946339,37.067463,-2.857107,34.178665
694,0,-124.015762,148.364899,47.110508,-23.647051,63.133301,63.792416,14.767547,26.640957,53.977100,37.148338,-2.801052,34.180527
695,0,-123.907410,148.437119,47.147228,-23.557587,63.260593,63.727543,14.873677,26.750050,53.940948,37.204811,-2.755501,34.204327
696,0,-123.808525,148.481857,47.141838,-23.480644,63.333183,63.663208,14.897308,26.820475,53.932301,37.188362,-2.701269,34.164688
697,0,-123.758942,148.521408,47.071724,-23.527071,63.405186,63.569725,14.875610,26.856375,53.906578,37.130718,-2.668920,34.136810
698,0,-123.768860,148.569382,47.062870,-23.585678,63.379364,63.511372,14.793026,26.887299,53.881306,37.078117,-2.657758,34.130402
699,0,-123.751137,148.562592,47.062767,-23.668152,63.387901,63.459061,14.626468,26.893953,53.794456,37.038227,-2.660368,34.113068
700,0,-123.748123,148.563324,47.073410,-23.762737,63.366970,63.447483,14.540029,26.917906,53.754543,36.949188,-2.636132,34.079342
701,0,-123.794373,148.551270,47.094379,-23.782091,63.320972,63.478367,14.492897,26.940607,53.765789,36.897621,-2.636153,34.087795
702,0,-123.855133,148.559616,47.113598,-23.829790,63.271164,63.503204,14.495650,26.919420,53.772175,36.895145,-2.614507,34.059139
703,0,-123.854370,148.544128,47.184326,-23.859026,63.263329,63.517181,14.475637,26.938490,53.739670,36.863529,-2.630354,34.033161
704,0,-123.891151,148.585251,47.233059,-23.834326,63.260742,63.530781,14.465241,26.934839,53.741837,36.826191,-2.576722,34.027321
705,0,-123.887634,148.647095,47.307800,-23.836594,63.279957,63.513763,14.456928,26.979683,53.716843,36.853748,-2.514354,34.046009
706,0,-123.897903,148.700211,47.313873,-23.796850,63.324421,63.522465,14.437810,27.036621,53.679024,36.851650,-2.495823,34.035435
707,0,-123.847389,148.783722,47.319683,-23.777540,63.399845,63.453384,14.472960,27.062267,53.666817,36.864536,-2.477006,34.033192
708,0,-123.862305,148.825912,47.314915,-23.752058,63.401901,63.400223,14.457273,27.111265,53.616905,36.855518,-2.456068,34.032482
709,0,-123.834259,148.891983,47.346046,-23.742670,63.474819,63.354759,14.468080,27.146095,53.619595,36.860943,-2.412421,34.032207
710,0,-123.821899,148.930862,47.354294,-23.770576,63.498959,63.312813,14.452150,27.181086,53.592525,36.848103,-2.405108,34.043068
711,0,-123.828453,148.954712,47.392719,-23.771410,63.499004,63.311813,14.458440,27.177839,53.608177,36.857368,-2.410712,34.057663
712,0,-123.836761,149.045120,47.369827,-23.759197,63.490829,63.290188,14.446898,27.157347,53.582375,36.822811,-2.406462,34.050167
713,0,-123.805000,149.086288,47.396618,-23.757570,63.491337,63.283875,14.449493,27.177584,53.582478,36.864719,-2.395895,34.013084
714,0,-123.768250,149.096405,47.362644,-23.742891,63.506611,63.284279,14.459051,27.182953,53.581894,36.868523,-2.396601,34.018822
715,0,-123.741943,149.147537,47.345886,-23.714262,63.536793,63.274822,14.476502,27.198240,53.583237,36.890511,-2.383402,34.036827
716,0,-123.704643,149.178879,47.333733,-23.713675,63.543289,63.295097,14.344040,27.353394,53.430611,36.872154,-2.397388,34.022606
717,0,-123.665672,149.183701,47.274494,-23.710062,63.545322,63.297897,14.479809,27.265221,53.472717,36.871899,-2.370188,34.043945
718,0,-123.645592,149.218521,47.258717,-23.733747,63.606419,63.297348,14.469465,27.250313,53.466183,36.813751,-2.328916,34.017887
719,0,-123.643890,149.243317,47.160198,-23.710903,63.629276,63.297325,14.477647,27.305029,53.439201,36.794266,-2.339262,34.027752
720,0,-123.650032,149.259094,47.054089,-23.747419,63.680485,63.237110,14.474792,27.328243,53.419712,36.811638,-2.301034,34.003365
721,0,-123.623726,149.264053,46.933880,-23.786064,63.691288,63.205040,14.449785,27.372772,53.387100,36.799507,-2.261941,33.980030
722,0,-123.616058,149.265137,46.837818,-23.793879,63.714027,63.126163,14.449522,27.366341,53.350750,36.793991,-2.264087,33.984291
723,0,-123.584961,149.274368,46.717918,-23.849100,63.738197,63.061989,14.415483,27.406683,53.295418,36.794556,-2.258282,33.980534
724,0,-123.580704,149.253586,46.597923,-23.940105,63.765301,62.985210,14.411628,27.435247,53.286922,36.758377,-2.262494,33.972042
725,0,-123.616959,149.236954,46.466000,-23.949814,63.784756,62.952862,14.392139,27.445215,53.243160,36.759293,-2.239810,33.990795
726,0,-123.601280,149.215057,46.331284,-24.006582,63.765614,62.897629,14.374202,27.458565,53.229252,36.679379,-2.282468,33.937107
727,0,-123.586945,149.192307,46.234978,-24.042608,63.786594,62.859402,14.374526,27.503544,53.195065,36.739750,-2.171425,33.967201
728,0,-123.595490,149.199219,46.141933,-24.010096,63.831760,62.814289,14.336375,27.527603,53.166702,36.677315,-2.231405,33.920933
729,0,-123.608391,149.191757,46.083424,-23.991653,63.865334,62.812187,14.342941,27.561754,53.137081,36.674381,-2.224193,33.920025
730,0,-123.562012,149.213806,46.019932,-23.984953,63.905037,62.776058,14.402766,27.590807,53.162079,36.649445,-2.199992,33.912796
731,0,-123.560349,149.272705,45.955929,-23.941187,63.957706,62.744022,14.406384,27.618330,53.118904,36.744614,-2.108919,33.934124
732,0,-123.561203,149.307556,45.848854,-23.940857,63.984127,62.749012,14.410217,27.687748,53.084770,36.686314,-2.147002,33.915230
733,0,-123.564148,149.337952,45.819645,-23.916363,64.080032,62.699554,14.437523,27.703037,53.070148,36.675514,-2.125023,33.913227
734,0,-123.548653,149.374313,45.733994,-23.837124,64.113396,62.698910,14.430507,27.717009,53.071892,36.694111,-2.081664,33.892391
735,0,-123.523415,149.403442,45.686928,-23.844341,64.148163,62.694473,14.403092,27.761837,53.035973,36.701965,-2.008360,33.901928
736,0,-123.497719,149.414459,45.626263,-23.854437,64.209312,62.656254,14.461353,27.784006,53.039181,36.722492,-2.011246,33.916378
737,0,-123.511108,149.422226,45.554611,-23.827841,64.233719,62.647930,14.420760,27.768578,53.034603,36.679039,-1.979171,33.889507
738,0,-123.504463,149.395325,45.510677,-23.890087,64.219818,62.612637,14.405344,27.788517,53.007481,36.707958,-2.020403,33.899872
739,0,-123.493378,149.384186,45.497379,-23.875792,64.229088,62.635048,14.411821,27.724165,53.004856,36.664806,-2.016174,33.888737
740,0,-123.501045,149.371414,45.482758,-23.898901,64.194244,62.649174,14.408892,27.764307,53.021999,36.629723,-2.023362,33.873737
741,0,-123.499268,149.357162,45.423260,-23.882311,64.215912,62.654739,14.401692,27.782053,53.042007,36.685966,-1.985182,33.890076
742,0,-123.500107,149.331909,45.395538,-23.883070,64.214211,62.657787,14.451550,27.795555,53.045452,36.681282,-2.037376,33.869999
743,0,-123.473953,149.335587,45.372753,-23.858370,64.272629,62.651047,14.492911,27.820494,53.058182,36.748016,-1.959075,33.891724
744,0,-123.460876,149.338699,45.312576,-23.827097,64.301910,62.633904,14.553741,27.865952,53.059814,36.788658,-1.905271,33.927589
745,0,-123.422745,149.341141,45.254478,-23.794916,64.362823,62.631748,14.593967,27.914833,53.076660,36.844357,-1.906607,33.952118
746,0,-123.421822,149.307175,45.155922,-23.765606,64.408470,62.608330,14.621384,27.952898,53.079678,36.820030,-1.874194,33.922810
747,0,-123.419579,149.301620,45.067093,-23.782307,64.455605,62.570705,14.632855,27.999794,53.087425,36.841488,-1.863686,33.955353
748,0,-123.442719,149.272614,44.976444,-23.786610,64.470520,62.516800,14.623646,28.009365,53.089989,36.852428,-1.871499,33.958427
749,0,-123.471771,149.219116,44.872631,-23.826935,64.466408,62.455021,14.611234,28.030846,53.095486,36.873890,-1.878445,34.000656
750,0,-123.507950,149.158951,44.783737,-23.888327,64.433342,62.415039,14.614164,28.038734,53.092873,36.892654,-1.882951,34.002201
751,0,-123.533218,149.084381,44.693237,-23.942514,64.428223,62.331390,14.608073,28.035326,53.083176,36.871174,-1.879799,33.987473
752,0,-123.603249,149.080002,44.594059,-24.051285,64.402077,62.202339,14.547417,28.059015,53.025845,36.869102,-1.894425,33.961288
753,0,-123.630478,149.011230,44.481781,-24.092611,64.420006,62.134079,14.561974,28.089876,52.992596,36.893593,-1.899710,33.961086
754,0,-123.639816,148.987244,44.400478,-24.131477,64.417847,62.062168,14.507698,28.084185,52.962532,36.870537,-1.892133,33.949371
755,0,-123.715675,148.988403,44.307671,-24.170425,64.435669,62.001106,14.461708,28.071709,52.962959,36.875549,-1.897595,33.959793
756,0,-123.730675,148.969452,44.294399,-24.206612,64.481712,61.983433,14.446834,28.096582,52.981522,36.858929,-1.885588,33.955147
757,0,-123.800583,148.933136,44.238266,-24.250128,64.452003,61.970612,14.444150,28.117428,52.972233,36.850010,-1.871043,33.982998
758,0,-123.824677,148.933731,44.228394,-24.228460,64.425720,61.969612,14.455399,28.138828,52.975960,36.882545,-1.868376,33.992912
759,0,-123.872002,148.884506,44.229420,-24.244209,64.442459,61.975750,14.476192,28.159258,53.010674,36.917023,-1.853528,34.001907
760,0,-123.932404,148.861115,44.241699,-24.236778,64.416092,61.983406,14.520948,28.124565,53.015610,36.923603,-1.870484,34.018101
761,0,-123.960411,148.838196,44.217155,-24.237295,64.413734,61.987072,14.548085,28.132322,53.033726,36.955292,-1.877260,34.018120
762,0,-123.934402,148.816849,44.218784,-24.226444,64.412445,61.944191,14.573149,28.120192,53.029320,36.985809,-1.881070,34.040215
763,0,-124.009056,148.826660,44.176823,-24.198473,64.398125,61.944756,14.599714,28.153793,53.036629,37.011143,-1.882174,34.018173
764,0,-124.004547,148.799255,44.161385,-24.233631,64.418335,61.925694,14.600143,28.158981,53.038303,37.050716,-1.908968,34.058262
765,0,-124.080612,148.751511,44.130699,-24.244297,64.416809,61.890064,14.603629,28.177441,53.047867,37.075123,-1.883690,34.040962
766,0,-124.096611,148.719467,44.127007,-24.237654,64.405731,61.857452,14.611736,28.176018,53.041668,37.087742,-1.895455,34.053566
767,0,-124.124977,148.706757,44.134972,-24.268906,64.378616,61.849907,14.617576,28.153780,53.027218,37.091213,-1.915863,34.049248
768,0,-124.185326,148.677231,44.121197,-24.265537,64.392899,61.837494,14.609505,28.171818,53.051678,37.094547,-1.920409,34.054489
769,0,-124.193382,148.677185,44.120483,-24.305656,64.380356,61.819572,14.598391,28.181335,53.059616,37.091675,-1.926206,34.069279
770,0,-124.183617,148.629166,44.146191,-24.300406,64.361816,61.821480,14.628857,28.163263,53.075539,37.109619,-1.927924,34.071781
771,0,-124.196785,148.645599,44.151566,-24.246117,64.380608,61.858845,14.667869,28.184263,53.082394,37.161175,-1.913239,34.097694
772,0,-124.164429,148.635117,44.171036,-24.188110,64.391319,61.853428,14.751448,28.195414,53.079437,37.202194,-1.935014,34.111485
773,0,-124.106201,148.701904,44.216396,-24.101288,64.447815,61.874306,14.826780,28.245979,53.066032,37.262173,-1.899949,34.108025
774,0,-124.063393,148.729507,44.249660,-24.050392,64.475983,61.876904,14.878505,28.300129,53.083900,37.271538,-1.858881,34.097847
775,0,-124.008499,148.717072,44.281925,-23.983837,64.496063,61.882885,14.942997,28.311531,53.087570,37.324799,-1.873567,34.103909
776,0,-123.962105,148.754898,44.313023,-23.908558,64.531250,61.905403,14.977991,28.350245,53.118282,37.327908,-1.875547,34.113483
777,0,-123.971359,148.769699,44.356682,-23.869392,64.562843,61.898624,14.992224,28.339651,53.102730,37.375854,-1.869443,34.138268
778,0,-123.954620,148.783417,44.417671,-23.846088,64.589523,61.882870,15.018958,28.349413,53.077995,37.373600,-1.890170,34.100208
779,0,-123.949615,148.810898,44.413116,-23.813944,64.639374,61.879192,15.032129,28.362730,53.063114,37.444843,-1.896844,34.126019
780,0,-123.944450,148.800385,44.437187,-23.790421,64.648796,61.837204,15.039881,28.376472,53.060486,37.401699,-1.851360,34.096886
781,0,-123.953102,148.830841,44.457806,-23.754213,64.664398,61.848652,15.062274,28.431374,53.064701,37.417843,-1.849467,34.118946
782,0,-123.976379,148.864426,44.501888,-23.757956,64.703026,61.820049,15.073349,28.430510,53.036331,37.429676,-1.855030,34.105556
783,0,-123.967972,148.864578,44.499790,-23.664406,64.734619,61.820839,15.096602,28.472343,53.044525,37.439529,-1.837034,34.117207
784,0,-123.967285,148.892517,44.518154,-23.579348,64.777130,61.869846,15.129036,28.487955,53.033569,37.452484,-1.820651,34.114723
785,0,-123.949326,148.883316,44.504848,-23.501198,64.853882,61.874775,15.188353,28.541225,53.055859,37.497513,-1.768274,34.129864
786,0,-123.949097,148.878891,44.512436,-23.427200,64.934196,61.880329,15.241192,28.605555,53.062027,37.511730,-1.772580,34.134640
787,0,-123.943329,148.893509,44.515984,-23.340328,64.978203,61.827999,15.336823,28.582968,53.053123,37.527897,-1.754955,34.141296
788,0,-123.934303,148.930511,44.514072,-23.352047,64.997917,61.804848,15.353225,28.594595,53.063885,37.575916,-1.728069,34.135109
789,0,-123.932678,148.886749,44.478180,-23.307413,65.034645,61.776978,15.394535,28.645233,53.028835,37.628857,-1.759239,34.139610
790,0,-123.952812,148.890640,44.474083,-23.276293,65.043098,61.772751,15.409172,28.632448,53.053093,37.650692,-1.779437,34.170937
791,0,-123.948242,148.846848,44.446457,-23.257177,65.064423,61.762917,15.430137,28.654541,53.063812,37.674160,-1.782860,34.185833
792,0,-123.953514,148.844376,44.428066,-23.260086,65.062447,61.744503,15.431040,28.667427,53.042923,37.675007,-1.776437,34.153290
793,0,-123.936897,148.820755,44.433044,-23.248726,65.050377,61.754612,15.487604,28.660139,53.079918,37.723839,-1.776797,34.194057
794,0,-123.946426,148.822937,44.427635,-23.203856,65.021919,61.760696,15.514902,28.657032,53.087742,37.755764,-1.759163,34.210239
795,0,-123.969559,148.761337,44.419682,-23.202234,65.023666,61.747002,15.536049,28.695322,53.105251,37.769409,-1.755609,34.200939
796,0,-123.990585,148.772797,44.430054,-23.161547,65.028816,61.739498,15.537000,28.696293,53.066208,37.820961,-1.732822,34.209080
797,0,-124.023903,148.774979,44.453548,-23.058102,64.942184,61.882626,15.634396,28.675451,53.172340,37.723186,-1.829423,34.197803
798,0,-124.041229,148.802307,44.463051,-23.096544,64.974937,61.831581,15.489162,28.754414,53.084808,37.800545,-1.740732,34.215588
799,0,-124.066307,148.836365,44.480000,-23.093264,65.006706,61.800892,15.471965,28.695292,53.202843,37.870575,-1.762388,34.229836
800,0,-124.094727,148.825806,44.480053,-23.092846,65.006668,61.801826,15.508663,28.649666,53.257366,37.848206,-1.724429,34.221725
801,0,-124.128052,148.840485,44.487930,-23.108868,65.027473,61.775108,15.517190,28.628979,53.220295,37.828941,-1.710403,34.202141
802,0,-124.145836,148.834579,44.455891,-23.107044,65.030678,61.737270,15.497952,28.653654,53.203690,37.825043,-1.695658,34.179424
803,0,-124.167747,148.828812,44.464901,-23.102324,65.024620,61.749233,15.489912,28.682489,53.191433,37.851055,-1.718843,34.205845
804,0,-124.258430,148.899673,44.440044,-23.096241,65.036903,61.738911,15.507675,28.702440,53.190414,37.853870,-1.704692,34.193615
805,0,-124.352554,148.878082,44.586597,-23.046377,64.987556,61.831284,15.595477,28.679810,53.221878,37.817299,-1.783527,34.193253
806,0,-124.387321,148.873199,44.632214,-23.073467,64.973503,61.869804,15.608912,28.665899,53.254803,37.794289,-1.775849,34.190056
807,0,-124.417572,148.853241,44.646927,-23.280527,65.128731,61.831829,15.593215,28.663078,53.274624,37.775436,-1.778306,34.186172
808,0,-124.437614,148.821121,44.732712,-23.375662,65.181023,61.834549,15.629487,28.632164,53.321278,37.833485,-1.830468,34.199505
809,0,-124.465469,148.824585,44.762009,-23.035698,64.831306,62.142017,15.660077,28.623449,53.342827,37.855400,-1.829494,34.209869
810,0,-124.569923,148.811188,44.858173,-23.018284,64.787079,62.221306,15.700502,28.611296,53.370972,37.841240,-1.840774,34.214958
811,0,-124.609642,148.795074,44.945938,-22.946339,64.796783,62.296661,15.703235,28.631311,53.393147,37.823658,-1.851183,34.200817
812,0,-124.683464,148.805801,45.027569,-22.939114,64.757423,62.362816,15.800732,28.571831,53.451107,37.852562,-1.851752,34.202866
813,0,-124.708992,148.785004,45.125786,-22.877510,64.757469,62.437294,15.824154,28.586060,53.472633,38.008133,-1.768933,34.279617
814,0,-124.713730,148.768738,45.178391,-22.845009,64.714211,62.482708,15.863860,28.578728,53.497738,38.045185,-1.757215,34.306297
815,0,-124.791840,148.804810,45.241283,-22.819920,64.685860,62.504589,15.838526,28.590122,53.496983,38.064995,-1.695107,34.304417
816,0,-124.838432,148.776108,45.262585,-22.801687,64.697998,62.582039,15.894681,28.602873,53.517288,38.083141,-1.696178,34.305702
817,0,-124.919991,148.783691,45.349354,-22.778406,64.671371,62.631145,15.899435,28.609529,53.546867,38.055672,-1.694311,34.305271
818,0,-124.924698,148.750519,45.383926,-22.761936,64.641457,62.652023,15.914464,28.614870,53.530247,38.056877,-1.702151,34.309410
819,0,-124.961967,148.765182,45.464470,-22.753462,64.651566,62.699474,15.915765,28.611280,53.537632,38.037479,-1.710536,34.319607
820,0,-124.986588,148.761475,45.481487,-22.741888,64.642387,62.712288,15.904687,28.604357,53.517979,38.054245,-1.700927,34.306976
821,0,-125.015732,148.799011,45.513878,-22.750759,64.617691,62.723503,15.895462,28.606094,53.522472,38.072701,-1.712330,34.328972
822,0,-125.094894,148.871933,45.545582,-22.707344,64.637794,62.722839,15.909383,28.607883,53.518475,38.084538,-1.696296,34.309704
823,0,-125.100494,148.908630,45.543304,-22.702150,64.635399,62.732040,15.903456,28.612349,53.518494,38.074001,-1.690127,34.303246
824,0,-125.100716,148.940399,45.544735,-22.697319,64.631874,62.761387,15.913652,28.649500,53.511284,38.086113,-1.649096,34.304230
825,0,-125.120071,148.971161,45.569618,-22.672321,64.671036,62.770695,15.905097,28.659506,53.490093,38.071449,-1.646678,34.322346
826,0,-125.148010,149.037018,45.587524,-22.662428,64.680717,62.795231,15.914731,28.648815,53.511036,38.073746,-1.650095,34.309628
827,0,-125.119743,149.023361,45.610195,-22.643820,64.681038,62.805824,15.966445,28.648758,53.512520,38.063339,-1.643683,34.309738
828,0,-125.147026,149.040283,45.593769,-22.627308,64.644203,62.828728,15.992393,28.664619,53.550526,38.103767,-1.627807,34.317539
829,0,-125.135735,149.027924,45.618530,-22.598555,64.652344,62.851944,15.988117,28.671143,53.536472,38.125046,-1.620818,34.315025
830,0,-125.107407,149.006378,45.602913,-22.615528,64.667938,62.867626,16.002651,28.644159,53.576908,38.005035,-1.766286,34.282104
831,0,-125.118050,149.011597,45.587250,-22.575018,64.650124,62.853916,16.039238,28.618464,53.592281,38.155563,-1.620833,34.321068
832,0,-125.083923,148.992538,45.536488,-22.581049,64.658630,62.847801,16.075243,28.669643,53.572575,38.132504,-1.632028,34.345879
833,0,-125.070946,148.997269,45.552578,-22.573698,64.671181,62.834122,16.078669,28.683859,53.576370,38.026955,-1.744294,34.298492
834,0,-125.094444,149.007980,45.511257,-22.564825,64.679626,62.848976,16.080111,28.720737,53.601460,37.992188,-1.426584,34.244774
835,0,-125.087898,148.993225,45.526707,-22.560793,64.681396,62.852219,16.083267,28.691940,53.582687,37.854115,-1.558997,34.182278
836,0,-125.138847,148.991257,45.502670,-22.558023,64.710709,62.865280,16.085533,28.688629,53.566849,37.870018,-1.529861,34.205151
837,0,-125.128342,149.027878,45.455490,-22.557961,64.718765,62.850201,16.082781,28.769531,53.585133,37.898155,-1.511801,34.179893
838,0,-125.153839,149.048355,45.424412,-22.560509,64.749321,62.871941,16.066168,28.813406,53.561066,37.926395,-1.494732,34.170185
839,0,-125.130814,149.059189,45.366417,-22.516933,64.795815,62.885159,16.103872,28.830910,53.568039,37.973083,-1.470964,34.175690
840,0,-125.122589,149.055420,45.330070,-22.480652,64.842773,62.863411,16.176943,28.845594,53.589161,37.998428,-1.487176,34.165424
841,0,-125.128700,149.048721,45.272652,-22.463991,64.877899,62.866634,16.191940,28.880302,53.574856,38.075527,-1.495887,34.183067
842,0,-125.106949,149.043671,45.226669,-22.463255,64.873215,62.854462,16.237114,28.908495,53.592636,38.111290,-1.497868,34.170437
843,0,-125.104103,149.048004,45.207111,-22.413475,64.901596,62.864468,16.266014,28.938372,53.584976,38.324917,-1.354333,34.202709
844,0,-125.110153,149.042038,45.235126,-22.408409,64.923615,62.836109,16.294043,28.943913,53.584969,38.439705,-1.334897,34.278133
845,0,-125.106651,149.045624,45.236271,-22.359468,64.891823,62.923370,16.289904,28.934135,53.604160,38.419594,-1.415524,34.250946
846,0,-125.126686,149.030319,45.287151,-22.385874,64.881256,62.938229,16.237198,28.887894,53.597286,38.353989,-1.412099,34.303455
847,0,-125.132515,149.014694,45.363159,-22.341146,64.872246,63.024052,16.255409,28.887348,53.620815,38.219028,-1.445946,34.363586
848,0,-125.135269,149.073914,45.469963,-22.322289,64.838844,63.126453,16.266478,28.886860,53.672703,38.235382,-1.433602,34.368969
849,0,-125.112488,149.060669,45.540043,-22.399376,64.978607,63.182026,16.356361,28.864712,53.722496,38.250206,-1.409603,34.370762
850,0,-125.124588,149.148239,45.648861,-22.233332,65.008911,63.270039,16.412579,28.884270,53.738194,38.271973,-1.405772,34.387665
851,0,-125.046761,149.213486,45.742844,-21.943092,64.996597,63.420498,16.541451,28.956926,53.801785,38.230499,-1.460286,34.375069
852,0,-124.992775,149.290482,45.804131,-21.724751,65.010269,63.516586,16.654783,28.982769,53.842823,38.395584,-1.308949,34.424995
853,0,-124.935043,149.394745,45.883106,-21.556234,65.102547,63.597851,16.784990,29.085310,53.897938,38.485580,-1.289282,34.429226
854,0,-124.881180,149.465073,45.991810,-21.404684,65.183380,63.705524,16.917137,29.098198,53.937374,38.492756,-1.265770,34.460712
855,0,-124.822533,149.532806,46.070553,-21.267241,65.222092,63.792332,17.000324,29.170755,53.971653,38.478615,-1.340102,34.462318
856,0,-124.814850,149.591141,46.159599,-21.111845,65.292892,63.910908,17.104650,29.173996,54.023476,38.512646,-1.315677,34.494583
857,0,-124.799141,149.626846,46.284630,-21.043070,65.324295,63.985565,17.211121,29.250278,54.057320,38.547394,-1.255100,34.492897
858,0,-124.790947,149.688095,46.397076,-20.854101,65.403259,64.141441,17.242453,29.293339,54.080948,38.548599,-1.218192,34.511768
859,0,-124.765381,149.763016,46.519203,-20.718403,65.486969,64.289230,17.348028,29.264042,54.139561,38.536343,-1.202541,34.531975
860,0,-124.726433,149.861969,46.655025,-20.575132,65.548805,64.428627,17.427176,29.338699,54.165218,38.554836,-1.144895,34.548893
861,0,-124.676895,149.952316,46.775894,-20.379492,65.611176,64.635567,17.539165,29.410063,54.252892,38.676842,-0.936928,34.530125
862,0,-124.619209,150.047134,46.913349,-20.254349,65.771553,64.744286,17.660740,29.639790,54.397488,38.866917,-0.731694,34.582344
863,0,-124.595917,150.177353,47.058750,-20.009516,65.954865,65.028633,17.936380,29.855068,54.495373,39.071278,-0.519661,34.648083
864,0,-124.540504,150.294846,47.254585,-19.774614,66.142319,65.275917,17.954216,30.232529,54.490292,39.192352,-0.326985,34.722446
865,0,-124.562737,150.462982,47.492729,-19.536758,66.272514,65.484535,18.158630,30.306688,54.599739,39.258587,-0.189459,34.747746
866,0,-124.524689,150.590515,47.741203,-19.335163,66.396172,65.744682,18.399061,30.343124,54.707848,39.359169,-0.114013,34.796707
867,0,-124.551636,150.731003,47.980179,-19.182117,66.482201,66.019875,18.554718,30.435614,54.823208,39.438599,0.001831,34.825672
868,0,-124.601395,150.797638,48.228695,-19.027149,66.566833,66.249908,18.700218,30.494535,54.960331,39.534939,0.088888,34.869179
869,0,-124.574593,150.822647,48.455109,-18.843403,66.654922,66.538055,18.806406,30.547720,55.052765,39.597828,0.162839,34.943264
870,0,-124.532280,150.971085,48.672882,-18.655342,66.778069,66.749207,19.009258,30.622236,55.185730,39.712166,0.277811,34.974453
871,0,-124.459511,151.027756,48.827377,-18.530775,66.903282,67.015648,19.111744,30.766548,55.282272,39.772308,0.474405,35.007679
872,0,-124.444969,151.084778,48.995438,-18.384924,67.135658,67.258995,19.247171,30.948433,55.428425,39.900612,0.667859,35.075035
873,0,-124.402046,151.147171,49.114361,-18.186291,67.316383,67.489113,19.455671,31.196308,55.553432,40.068066,0.897559,35.094738
874,0,-124.392914,151.217377,49.193611,-18.088152,67.498444,67.658646,19.628574,31.409483,55.610359,40.253250,1.125260,35.134495
875,0,-124.381271,151.284576,49.267567,-17.967844,67.664200,67.756607,19.776646,31.592424,55.677334,40.328053,1.258996,35.140934
876,0,-124.393219,151.297180,49.278202,-17.958864,67.716423,67.828888,19.828747,31.692617,55.718292,40.359955,1.422536,35.158550
877,0,-124.397682,151.262405,49.269100,-18.024260,67.769089,67.818535,19.830544,31.734447,55.737164,40.387028,1.497172,35.157978
878,0,-124.458817,151.195251,49.231949,-18.109417,67.713844,67.812599,19.782377,31.739325,55.729527,40.337658,1.490692,35.124310
879,0,-124.558174,151.115967,49.229427,-18.173243,67.608040,67.825462,19.624495,31.619509,55.718342,40.285057,1.419834,35.148331
880,0,-124.659035,150.943985,49.167858,-18.388340,67.502502,67.834892,19.532309,31.522572,55.710262,40.219406,1.367103,35.149673
881,0,-124.796616,150.778427,49.124645,-18.548052,67.394447,67.799484,19.383886,31.464945,55.706024,40.121212,1.356210,35.115589
882,0,-124.887596,150.648697,49.007069,-18.721462,67.321465,67.725296,19.219881,31.452566,55.615746,40.045208,1.330518,35.085899
883,0,-125.007301,150.501526,48.930115,-18.845272,67.226395,67.693466,19.124699,31.357405,55.618828,40.022835,1.314962,35.086040
884,0,-125.057411,150.356812,48.793549,-18.974428,67.140259,67.670937,19.072922,31.349369,55.581100,39.938053,1.321991,35.054943
885,0,-125.145363,150.239151,48.678558,-19.072527,67.161507,67.482414,18.998493,31.378069,55.556129,39.940598,1.423761,35.020878
886,0,-125.173691,150.160477,48.548607,-19.197325,67.184326,67.401131,18.933363,31.364862,55.509472,39.892105,1.468267,35.014343
887,0,-125.242966,150.094955,48.415886,-19.291281,67.114349,67.438095,18.913813,31.402342,55.483269,39.835476,1.423984,34.986309
888,0,-125.267281,150.004929,48.235519,-19.343840,67.165131,67.402039,18.873672,31.487137,55.445709,39.809147,1.474424,35.003929
889,0,-125.280693,149.936935,48.083359,-19.424026,67.173561,67.314240,18.876654,31.527258,55.447002,39.818981,1.511038,34.997509
890,0,-125.274658,149.871979,47.893776,-19.486473,67.192490,67.238785,18.886581,31.566366,55.403057,39.823910,1.563833,34.996468
891,0,-125.223206,149.773514,47.752930,-19.571415,67.207497,67.161438,18.848873,31.614824,55.367878,39.826157,1.572431,34.983517
892,0,-125.229401,149.697083,47.611622,-19.644402,67.199860,67.049126,18.834162,31.670120,55.345455,39.814735,1.591728,34.979958
893,0,-125.205605,149.672333,47.480042,-19.657518,67.252274,67.005951,18.864305,31.710464,55.313923,39.854393,1.631354,34.976978
894,0,-125.188980,149.596100,47.382225,-19.668240,67.255150,66.943214,18.863844,31.711027,55.313702,39.876225,1.657916,34.959660
895,0,-125.182274,149.545593,47.314098,-19.628889,67.222519,66.907440,18.943388,31.707376,55.305313,39.882866,1.654712,34.957188
896,0,-125.125961,149.528122,47.237778,-19.579948,67.281570,66.891487,18.962305,31.737629,55.268383,39.933979,1.640037,34.950481
897,0,-125.100807,149.515564,47.169231,-19.540333,67.313354,66.852921,19.005888,31.811676,55.275387,39.982468,1.699103,34.972584
898,0,-125.044716,149.500854,47.095749,-19.502846,67.390282,66.810120,19.060560,31.856493,55.249115,39.991280,1.721397,34.972473
899,0,-125.032646,149.527176,47.046165,-19.459362,67.437416,66.742760,19.110338,31.938374,55.234043,40.081657,1.743849,34.956966
900,0,-125.040192,149.521393,46.988449,-19.437408,67.493439,66.709038,19.127865,31.959213,55.203648,40.093369,1.800461,34.935295
901,0,-125.013100,149.570236,46.901363,-19.419039,67.565437,66.638725,19.172939,32.045761,55.173458,40.120869,1.821059,34.928196
902,0,-124.998749,149.540787,46.823715,-19.411222,67.572411,66.588387,19.185402,32.093884,55.147354,40.155048,1.855557,34.929260
903,0,-125.028580,149.555817,46.744774,-19.401939,67.627380,66.453148,19.164333,32.131599,55.088120,40.155552,1.862870,34.922180
904,0,-125.028595,149.541946,46.646076,-19.455582,67.645912,66.356598,19.136843,32.109005,55.049583,40.153164,1.867078,34.900269
905,0,-125.068130,149.544601,46.590954,-19.501358,67.660545,66.316292,19.179230,32.123001,55.017384,40.105103,1.911202,34.876213
906,0,-125.108955,149.538864,46.519657,-19.585060,67.629135,66.210236,19.161787,32.163288,54.984451,40.109325,1.886296,34.874104
907,0,-125.151932,149.492661,46.438438,-19.656397,67.586197,66.168198,19.091053,32.147327,54.968666,40.102985,1.889262,34.873882
908,0,-125.247406,149.458832,46.384491,-19.697506,67.589577,66.129288,18.998421,32.159912,54.937546,40.062233,1.868994,34.847153
909,0,-125.270607,149.428482,46.358727,-19.841570,67.551712,66.038422,18.973425,32.172195,54.916084,40.030182,1.916015,34.838005
910,0,-125.306290,149.368988,46.285015,-19.895309,67.530708,66.010750,18.960794,32.123550,54.874393,40.009041,1.914845,34.827419
