Trajectories
100
,,Sano:Wrist,,,Sano:MPH3,,,Sano:PIP3,,,Sano:DIP3,,,
Frame,Sub Frame,X,Y,Z,X,Y,Z,X,Y,Z,X,Y,Z
,,mm,mm,mm,mm,mm,mm,mm,mm,mm,mm,mm,mm
1,0,-130.598816,138.522232,46.356651,-32.687248,43.052025,54.901878,7.447990,7.600235,47.733437,32.163456,-22.048090,30.427080
2,0,-130.561935,138.526733,46.349365,-32.669666,43.059395,54.887939,7.445974,7.610212,47.722153,32.159382,-22.049082,30.426147
3,0,-130.567200,138.523468,46.361832,-32.644890,43.042828,54.892593,7.470528,7.604557,47.725113,32.189991,-22.012917,30.434534
4,0,-130.557770,138.513840,46.322460,-32.661194,43.067089,54.887691,7.486870,7.628379,47.703690,32.189362,-22.014580,30.436438
5,0,-130.555878,138.511734,46.311634,-32.616901,43.051788,54.870449,7.485931,7.636393,47.722980,32.185211,-22.023787,30.428423
6,0,-130.558182,138.510376,46.308392,-32.642750,43.113102,54.870853,7.496202,7.657458,47.704937,32.189419,-22.025543,30.428429
7,0,-130.567825,138.488037,46.290291,-32.653313,43.097599,54.853188,7.478459,7.668541,47.725960,32.175602,-22.023003,30.429598
8,0,-130.564911,138.493668,46.291157,-32.650726,43.085743,54.860134,7.501373,7.636386,47.732685,32.179569,-22.025524,30.430655
9,0,-130.570755,138.466202,46.249035,-32.643738,43.088799,54.861229,7.455707,7.657750,47.655582,32.165447,-22.085571,30.421621
10,0,-130.584549,138.473465,46.228672,-32.615089,43.063740,54.860420,7.511747,7.653869,47.715199,32.187889,-22.018444,30.409472
11,0,-130.590897,138.461929,46.246727,-32.621056,43.066395,54.864784,7.511659,7.655929,47.720619,32.188812,-22.036453,30.423361
12,0,-130.621704,138.456497,46.223724,-32.610493,43.086891,54.863785,7.507577,7.656373,47.738327,32.193741,-22.032778,30.419722
13,0,-130.612518,138.439499,46.202694,-32.638321,43.089661,54.872391,7.466249,7.668482,47.683769,32.161469,-22.075043,30.431524
14,0,-130.671005,138.436630,46.212196,-32.653725,43.081528,54.853233,7.473311,7.655884,47.681870,32.155006,-22.083109,30.408894
15,0,-130.663544,138.425690,46.236664,-32.637634,43.068691,54.872501,7.474683,7.637810,47.742138,32.141129,-22.045567,30.401287
16,0,-130.681473,138.406052,46.227386,-32.636871,43.056557,54.884617,7.483710,7.614432,47.731464,32.166229,-22.065199,30.429829
17,0,-130.711029,138.365051,46.237480,-32.659912,43.052692,54.872845,7.483927,7.618522,47.740265,32.125999,-22.063690,30.398676
18,0,-130.755051,138.382767,46.299545,-32.680237,43.019466,54.906544,7.482161,7.602274,47.734779,32.135063,-22.073473,30.412691
19,0,-130.766235,138.357880,46.328907,-32.683258,43.025024,54.896477,7.470479,7.608285,47.752876,32.147125,-22.067297,30.400816
20,0,-130.796371,138.363907,46.335938,-32.674461,43.021481,54.928444,7.475738,7.595404,47.765892,32.136658,-22.079605,30.411612
21,0,-130.786285,138.362045,46.348495,-32.681168,43.022900,54.933784,7.498482,7.576704,47.764912,32.150116,-22.060196,30.402294
22,0,-130.774628,138.352585,46.372925,-32.665836,43.022594,54.948051,7.473115,7.618253,47.761444,32.144222,-22.063108,30.417305
23,0,-130.785187,138.356201,46.378170,-32.654922,43.013134,54.970081,7.497022,7.592369,47.770428,32.148281,-22.061543,30.418751
24,0,-130.776489,138.384857,46.404533,-32.651672,43.024113,54.982861,7.478674,7.620527,47.775158,32.166168,-22.034517,30.404058
25,0,-130.785461,138.402374,46.395618,-32.647476,43.032974,54.971687,7.496784,7.594771,47.767208,32.145260,-22.047342,30.429085
26,0,-130.787384,138.382706,46.372437,-32.661671,43.044102,54.959091,7.433483,7.637385,47.742775,32.103706,-22.111197,30.423429
27,0,-130.757919,138.408981,46.362934,-32.658974,43.054291,54.914692,7.431987,7.652762,47.705631,32.134300,-22.077194,30.427937
28,0,-130.739960,138.417175,46.348907,-32.656887,43.073204,54.888130,7.481898,7.660237,47.738003,32.143772,-22.034286,30.415579
29,0,-130.774521,138.440872,46.296829,-32.656132,43.103348,54.877254,7.478586,7.681143,47.726566,32.150238,-22.007555,30.412066
30,0,-130.764725,138.412079,46.245060,-32.666241,43.095440,54.857685,7.435351,7.694385,47.694626,32.133549,-22.036934,30.398487
31,0,-130.754227,138.423782,46.236290,-32.668339,43.107861,54.843834,7.488757,7.668898,47.729465,32.155708,-21.996395,30.413885
32,0,-130.744492,138.422867,46.227898,-32.681385,43.110710,54.841434,7.413937,7.707523,47.656052,32.132320,-22.049938,30.424227
33,0,-130.761749,138.401276,46.181496,-32.687302,43.107758,54.832840,7.395596,7.690718,47.643997,32.123779,-22.042749,30.406422
34,0,-130.738235,138.371399,46.170956,-32.716366,43.092621,54.823658,7.434564,7.659791,47.696491,32.107525,-22.035343,30.393604
35,0,-130.769989,138.385529,46.166405,-32.747322,43.055767,54.809711,7.427673,7.631334,47.711014,32.111656,-22.049385,30.414139
36,0,-130.768311,138.376755,46.187172,-32.751160,43.037243,54.830956,7.421960,7.609416,47.707684,32.104336,-22.055506,30.412724
37,0,-130.760315,138.384750,46.222107,-32.749695,43.028179,54.861839,7.413200,7.596575,47.728436,32.106159,-22.059029,30.421782
38,0,-130.757324,138.392349,46.246738,-32.750286,43.039467,54.866531,7.440551,7.611073,47.759937,32.108829,-22.054029,30.410082
39,0,-130.741043,138.401505,46.262722,-32.675903,43.038010,54.900063,7.470376,7.627882,47.762779,32.126293,-22.057940,30.412430
40,0,-130.718124,138.457016,46.271194,-32.654980,43.062332,54.904381,7.496616,7.597194,47.755138,32.142132,-22.041929,30.413685
41,0,-130.698074,138.495071,46.274837,-32.642723,43.110580,54.915882,7.506505,7.633433,47.756981,32.158157,-22.025314,30.424374
42,0,-130.635803,138.491852,46.280582,-32.599670,43.101086,54.915791,7.529224,7.663485,47.740395,32.155876,-22.023823,30.416021
43,0,-130.648224,138.556091,46.244678,-32.571903,43.128674,54.922245,7.559045,7.687171,47.759842,32.169430,-21.992205,30.408422
44,0,-130.627914,138.556305,46.229889,-32.593929,43.168583,54.884956,7.523936,7.729949,47.732037,32.185677,-21.977612,30.409864
45,0,-130.648056,138.565323,46.196922,-32.605774,43.185802,54.859837,7.533927,7.731577,47.734669,32.164783,-21.967117,30.394444
46,0,-130.625366,138.520233,46.200447,-32.616680,43.177464,54.866608,7.469547,7.742081,47.681133,32.143192,-22.015396,30.404289
47,0,-130.627563,138.519836,46.200413,-32.613667,43.184608,54.854240,7.468992,7.741586,47.682945,32.130253,-22.035013,30.399693
48,0,-130.634323,138.529724,46.183487,-32.652424,43.155312,54.804592,7.435413,7.722994,47.657921,32.134506,-22.036720,30.398809
49,0,-130.666275,138.529434,46.201923,-32.665119,43.153477,54.851360,7.422555,7.738619,47.668625,32.125095,-22.034269,30.402779
50,0,-130.664047,138.530823,46.203140,-32.672951,43.150299,54.838718,7.463927,7.715652,47.684692,32.130405,-21.997971,30.414757
51,0,-130.667023,138.555618,46.192696,-32.654041,43.173187,54.835644,7.441736,7.729373,47.675816,32.120426,-22.040028,30.407858
52,0,-130.676956,138.550110,46.193871,-32.624077,43.180351,54.865047,7.466388,7.717578,47.689182,32.131908,-22.032757,30.401817
53,0,-130.691208,138.565842,46.163971,-32.600178,43.177326,54.833611,7.551201,7.721245,47.710556,32.150620,-21.994305,30.404068
54,0,-130.657547,138.563080,46.186562,-32.609016,43.195690,54.847420,7.554753,7.728948,47.728119,32.166172,-21.981365,30.412958
55,0,-130.654816,138.554886,46.199780,-32.560146,43.177261,54.853859,7.563595,7.716459,47.745899,32.163422,-21.951971,30.407837
56,0,-130.630219,138.565216,46.217052,-32.578491,43.205101,54.856697,7.589819,7.732417,47.746822,32.189316,-21.980412,30.432253
57,0,-130.651398,138.551559,46.205677,-32.583191,43.204414,54.861542,7.570093,7.747928,47.734386,32.182201,-21.976044,30.415735
58,0,-130.647934,138.560135,46.191917,-32.586376,43.204868,54.859047,7.583992,7.744478,47.732086,32.169720,-21.978117,30.413435
59,0,-130.676086,138.551361,46.177101,-32.583866,43.201263,54.846313,7.507556,7.779918,47.693909,32.149532,-22.026707,30.421957
60,0,-130.702469,138.568863,46.178688,-32.587128,43.208462,54.851929,7.477424,7.748912,47.676407,32.143772,-22.016788,30.421322
61,0,-130.710419,138.556946,46.144485,-32.601124,43.235405,54.838062,7.480737,7.779445,47.679012,32.143993,-21.999422,30.425762
62,0,-130.705414,138.569046,46.118198,-32.621189,43.245838,54.824375,7.468379,7.763871,47.646694,32.142277,-22.003613,30.426823
63,0,-130.708099,138.565414,46.119682,-32.595512,43.221245,54.788651,7.464963,7.782480,47.655174,32.142693,-22.009636,30.414288
64,0,-130.703476,138.573273,46.075939,-32.614677,43.229214,54.778286,7.442677,7.769069,47.622471,32.143719,-22.011808,30.424536
65,0,-130.698349,138.550323,46.081482,-32.643181,43.195976,54.763626,7.439414,7.752293,47.646111,32.136562,-22.009764,30.416550
66,0,-130.706650,138.553955,46.072350,-32.670654,43.203480,54.767731,7.473800,7.745560,47.691113,32.102821,-21.945679,30.402946
67,0,-130.725998,138.529633,46.056355,-32.673237,43.205872,54.752277,7.398496,7.752418,47.613964,32.066177,-22.024477,30.381327
68,0,-130.720795,138.530182,46.062782,-32.669445,43.163036,54.771690,7.407062,7.739105,47.615299,32.073814,-22.053066,30.409922
69,0,-130.706039,138.543610,46.060577,-32.675537,43.159065,54.767372,7.455870,7.731900,47.672844,32.139153,-21.988194,30.409058
70,0,-130.678864,138.541077,46.060699,-32.676136,43.156872,54.765064,7.403566,7.733958,47.631527,32.102749,-22.042408,30.432865
71,0,-130.666702,138.545609,46.044960,-32.662937,43.176319,54.768276,7.432840,7.732928,47.631676,32.127934,-22.050480,30.420818
72,0,-130.641327,138.533447,46.013313,-32.659336,43.183769,54.759544,7.441419,7.745311,47.635155,32.132698,-22.031811,30.439028
73,0,-130.628052,138.538284,46.014732,-32.637226,43.179947,54.748478,7.441983,7.732639,47.646671,32.139183,-22.029442,30.425938
74,0,-130.605988,138.554626,45.976559,-32.672825,43.214993,54.724758,7.504719,7.766951,47.701077,32.163845,-21.978672,30.408678
75,0,-130.602951,138.567093,45.926613,-32.662560,43.213333,54.708881,7.454354,7.747158,47.639400,32.146168,-22.023241,30.421112
76,0,-130.586136,138.595581,45.921593,-32.663475,43.219193,54.686161,7.445284,7.752315,47.626995,32.138897,-22.046690,30.423803
77,0,-130.610291,138.602600,45.910366,-32.681725,43.239628,54.655064,7.437333,7.766822,47.627266,32.105038,-22.012890,30.430677
78,0,-130.610825,138.617554,45.904541,-32.691395,43.248428,54.621922,7.478811,7.763861,47.665981,32.126842,-21.984060,30.427603
79,0,-130.581665,138.653152,45.877174,-32.701466,43.264721,54.594372,7.465167,7.766242,47.638840,32.099224,-21.945919,30.381161
80,0,-130.599579,138.664780,45.873466,-32.708961,43.236217,54.572392,7.420509,7.755806,47.598148,32.097050,-21.925491,30.387165
81,0,-130.566483,138.705154,45.821247,-32.754936,43.255764,54.533459,7.346627,7.780939,47.508820,32.043530,-21.989941,30.369822
82,0,-130.615082,138.737564,45.764530,-32.813946,43.328117,54.485756,7.398405,7.792399,47.546387,32.066715,-21.921030,30.361834
83,0,-130.555542,138.705887,45.769970,-32.796066,43.294281,54.464371,7.330678,7.828504,47.501152,32.021526,-21.968266,30.362602
84,0,-130.546448,138.742432,45.718357,-32.825249,43.333492,54.421604,7.328832,7.831244,47.498451,31.994112,-21.971901,30.372965
85,0,-130.530579,138.745361,45.715343,-32.816139,43.336250,54.425350,7.324226,7.845439,47.487366,32.001541,-21.971645,30.377388
86,0,-130.525391,138.724197,45.699688,-32.813007,43.364319,54.402439,7.328956,7.847407,47.485226,32.012100,-21.965858,30.374771
87,0,-130.547318,138.766357,45.652100,-32.838039,43.333302,54.390549,7.370518,7.842516,47.518841,32.028606,-21.892284,30.366568
88,0,-130.556931,138.757080,45.628330,-32.828720,43.374901,54.384369,7.317212,7.850878,47.459469,32.018402,-21.965588,30.356176
89,0,-130.540771,138.758316,45.614136,-32.826797,43.347908,54.357468,7.344760,7.847838,47.502388,31.994902,-21.861324,30.352224
90,0,-130.489197,138.718552,45.583191,-32.829742,43.359276,54.365219,7.296906,7.851179,47.438278,32.008339,-21.983280,30.389227
91,0,-130.521225,138.755035,45.565113,-32.841930,43.352375,54.329670,7.313222,7.859993,47.462563,32.028236,-21.971876,30.354216
92,0,-130.516815,138.752457,45.519432,-32.828270,43.346306,54.331223,7.331643,7.847389,47.510136,32.047302,-21.913483,30.362411
93,0,-130.479385,138.729721,45.526913,-32.858494,43.369892,54.301170,7.313603,7.864810,47.431644,32.039139,-21.973974,30.400450
94,0,-130.495834,138.720566,45.491096,-32.845089,43.377892,54.278114,7.311943,7.867858,47.430904,31.996864,-21.950945,30.372458
95,0,-130.470596,138.712891,45.430061,-32.835243,43.380356,54.275517,7.311199,7.890461,47.421890,32.025814,-21.930513,30.356846
96,0,-130.430557,138.722733,45.395947,-32.847198,43.425587,54.255245,7.328367,7.895524,47.425625,32.041176,-21.933180,30.348795
97,0,-130.434418,138.747192,45.363777,-32.832382,43.445625,54.242725,7.322974,7.896576,47.394588,32.007954,-21.931929,30.368055
98,0,-130.402039,138.768356,45.349823,-32.841305,43.461605,54.214466,7.328612,7.920674,47.391815,32.035648,-21.929762,30.357586
99,0,-130.386307,138.764252,45.327061,-32.826221,43.453751,54.192371,7.324208,7.922794,47.379349,32.040852,-21.925589,30.353563
100,0,-130.421234,138.802048,45.336727,-32.820728,43.462978,54.213058,7.322551,7.921155,47.382576,32.063160,-21.932392,30.373785
101,0,-130.391418,138.814590,45.331318,-32.785297,43.483994,54.209778,7.343776,7.936504,47.389748,32.036865,-21.912045,30.353579
102,0,-130.349091,138.816711,45.320717,-32.778564,43.505016,54.194141,7.330006,7.943236,47.380062,32.003075,-21.909243,30.372087
103,0,-130.340988,138.822647,45.307056,-32.798561,43.516232,54.170700,7.338057,7.976242,47.376045,32.042221,-21.913572,30.343891
104,0,-130.315460,138.835403,45.307129,-32.778622,43.531338,54.187710,7.354352,7.976369,47.373363,32.021019,-21.904219,30.348785
105,0,-130.311340,138.883820,45.272552,-32.767235,43.535744,54.184322,7.358161,7.972552,47.383549,32.048859,-21.931086,30.369278
106,0,-130.285004,138.855865,45.270664,-32.771683,43.534683,54.185562,7.375900,7.972022,47.389244,32.047295,-21.929543,30.353699
107,0,-130.237747,138.842331,45.262589,-32.731129,43.505070,54.177353,7.381247,7.974228,47.389477,32.062500,-21.884613,30.375914
108,0,-130.240860,138.843262,45.268429,-32.753502,43.528637,54.186970,7.355480,7.976598,47.386738,32.054226,-21.893322,30.365011
109,0,-130.219193,138.856247,45.275444,-32.728420,43.495724,54.189053,7.355322,7.969595,47.402237,32.037876,-21.892900,30.371927
110,0,-130.218460,138.863785,45.306950,-32.782246,43.514896,54.184311,7.349848,7.972247,47.408295,32.041214,-21.894920,30.355934
111,0,-130.225433,138.877640,45.313068,-32.762264,43.518608,54.208855,7.351213,7.968435,47.393456,32.045860,-21.910606,30.382097
112,0,-130.224762,138.852646,45.294312,-32.761463,43.509693,54.195320,7.336848,7.954833,47.397480,32.054329,-21.897827,30.364414
113,0,-130.219330,138.879623,45.327469,-32.772903,43.508083,54.216000,7.334816,7.960382,47.415291,32.029610,-21.893288,30.363886
114,0,-130.231094,138.881516,45.368965,-32.777046,43.511932,54.239983,7.334933,7.960221,47.443684,32.030384,-21.891958,30.385851
115,0,-130.228424,138.882980,45.376438,-32.770321,43.520473,54.254036,7.337491,7.959895,47.425125,32.052956,-21.894400,30.381760
116,0,-130.241409,138.902374,45.383869,-32.755047,43.510902,54.247776,7.387251,7.953876,47.469776,32.089817,-21.840904,30.358240
117,0,-130.227310,138.900635,45.366459,-32.763668,43.532749,54.241776,7.376863,7.971261,47.457169,32.071613,-21.832506,30.357056
118,0,-130.259430,138.945923,45.368019,-32.761253,43.514023,54.241016,7.340697,7.988895,47.418907,32.047691,-21.886127,30.363075
119,0,-130.216812,138.936981,45.390522,-32.735798,43.514309,54.226406,7.330978,7.994601,47.391655,32.040413,-21.879934,30.332687
120,0,-130.208679,138.948044,45.380714,-32.722717,43.530190,54.225861,7.439258,8.000283,47.453026,32.077637,-21.835058,30.355700
121,0,-130.171692,138.935272,45.355618,-32.719841,43.526737,54.234486,7.419547,7.988090,47.453392,32.080669,-21.828217,30.346310
122,0,-130.162506,138.902786,45.356541,-32.701344,43.525146,54.229752,7.436843,7.967585,47.460793,32.114349,-21.834940,30.356552
123,0,-130.142120,138.893509,45.364853,-32.683048,43.559444,54.210827,7.432386,8.016456,47.419636,32.092159,-21.872801,30.397512
124,0,-130.150223,138.888901,45.375549,-32.707386,43.554382,54.203285,7.450298,7.983327,47.413437,32.079414,-21.866095,30.371357
125,0,-130.152756,138.888351,45.385876,-32.719170,43.531509,54.178982,7.443796,7.989008,47.453423,32.102642,-21.831848,30.352625
126,0,-130.152359,138.895050,45.420151,-32.721939,43.518513,54.202972,7.432343,7.963974,47.446564,32.092075,-21.847178,30.350176
127,0,-130.179031,138.899780,45.481289,-32.706100,43.493759,54.237835,7.432079,7.967080,47.448845,32.089561,-21.831793,30.347046
128,0,-130.167908,138.910675,45.513210,-32.714439,43.500973,54.229595,7.425309,7.974770,47.464222,32.071922,-21.832857,30.329033
129,0,-130.198914,138.902405,45.538887,-32.712067,43.511158,54.250122,7.420898,7.966394,47.455475,32.073231,-21.826012,30.370150
130,0,-130.192612,138.908920,45.596031,-32.700420,43.502869,54.289276,7.444860,7.983848,47.464436,32.100334,-21.837303,30.351467
131,0,-130.179398,138.961578,45.634388,-32.662029,43.515289,54.324036,7.440475,7.985102,47.480789,32.100597,-21.838627,30.354017
132,0,-130.172913,138.948151,45.658909,-32.665394,43.537674,54.332371,7.416305,7.988521,47.439850,32.096008,-21.906359,30.404116
133,0,-130.181274,138.943924,45.679363,-32.644241,43.533558,54.333324,7.505013,7.980816,47.501503,32.103283,-21.826891,30.352531
134,0,-130.174118,138.933197,45.692558,-32.645679,43.515583,54.335796,7.512690,7.954262,47.503391,32.122498,-21.827961,30.366699
135,0,-130.188812,138.979782,45.702961,-32.606415,43.521523,54.368931,7.467704,7.958759,47.477695,32.100147,-21.884880,30.396584
136,0,-130.198624,138.961960,45.720047,-32.614876,43.517494,54.363377,7.505554,7.963902,47.523880,32.100704,-21.811119,30.384611
137,0,-130.199997,138.943436,45.722103,-32.634090,43.502892,54.350533,7.503695,7.962572,47.537392,32.110828,-21.823000,30.392342
138,0,-130.229523,138.925034,45.696709,-32.630081,43.483723,54.358837,7.497474,7.963618,47.540257,32.103531,-21.849510,30.376068
139,0,-130.240906,138.896820,45.698296,-32.670696,43.451683,54.346909,7.481695,7.925340,47.531380,32.109146,-21.870295,30.382639
140,0,-130.265411,138.890442,45.730022,-32.700218,43.466106,54.337513,7.429145,7.963434,47.506748,32.100967,-21.853519,30.376167
141,0,-130.284409,138.893677,45.727745,-32.721096,43.458576,54.345825,7.405649,7.889590,47.472069,32.046741,-21.928160,30.378727
142,0,-130.303711,138.860840,45.766235,-32.723248,43.444870,54.373192,7.382271,7.901728,47.483059,32.056911,-21.914463,30.393154
143,0,-130.332565,138.840927,45.816422,-32.712227,43.414825,54.407318,7.449025,7.867865,47.532669,32.073231,-21.854229,30.377024
144,0,-130.273148,138.862732,45.818043,-32.692585,43.410385,54.425652,7.430431,7.888859,47.535168,32.075405,-21.865679,30.398104
145,0,-130.293167,138.856308,45.842266,-32.710773,43.406887,54.451981,7.425663,7.895648,47.558933,32.092968,-21.875513,30.368095
146,0,-130.305222,138.818054,45.876980,-32.696121,43.412891,54.463161,7.421172,7.902046,47.557468,32.113304,-21.874319,30.384226
147,0,-130.328247,138.835754,45.858719,-32.684040,43.398357,54.467880,7.479343,7.876458,47.570778,32.106861,-21.874630,30.386087
148,0,-130.313065,138.827103,45.860847,-32.689529,43.403389,54.475994,7.485287,7.880932,47.568192,32.109642,-21.877064,30.386005
149,0,-130.309082,138.810532,45.862194,-32.658794,43.406166,54.463783,7.438028,7.883001,47.501934,32.083344,-21.924973,30.425097
150,0,-130.310471,138.809402,45.858829,-32.656944,43.402374,54.467091,7.425735,7.886305,47.492569,32.087788,-21.938461,30.393511
151,0,-130.321823,138.796234,45.864101,-32.669647,43.408329,54.455128,7.390435,7.912388,47.497395,32.091698,-21.924700,30.374748
152,0,-130.346619,138.774963,45.838352,-32.687695,43.390697,54.435810,7.411064,7.886985,47.490170,32.084488,-21.924137,30.386095
153,0,-130.324997,138.765945,45.837513,-32.698883,43.371899,54.425980,7.436572,7.906177,47.536617,32.101509,-21.870432,30.402288
154,0,-130.357483,138.759476,45.813313,-32.718594,43.407272,54.416042,7.359352,7.905347,47.481846,32.087727,-21.932713,30.401228
155,0,-130.373398,138.754242,45.803112,-32.744400,43.435787,54.386662,7.356800,7.902826,47.483475,32.085438,-21.920025,30.385925
156,0,-130.394363,138.790924,45.781040,-32.731018,43.395863,54.381741,7.386314,7.913407,47.485554,32.035561,-21.857588,30.350233
157,0,-130.393616,138.779083,45.796524,-32.748863,43.415096,54.375992,7.385857,7.911440,47.486198,32.046551,-21.822683,30.354519
158,0,-130.383820,138.766541,45.789204,-32.760223,43.431622,54.352791,7.357100,7.938114,47.437042,32.054287,-21.922197,30.388639
159,0,-130.377243,138.777863,45.793266,-32.755638,43.419395,54.371090,7.383628,7.914331,47.502705,32.075527,-21.856792,30.369400
160,0,-130.350525,138.782776,45.813477,-32.743195,43.386253,54.372906,7.353385,7.941447,47.462387,32.071918,-21.919867,30.377443
161,0,-130.323273,138.787964,45.819145,-32.713669,43.411232,54.389301,7.344766,7.936379,47.459625,32.069592,-21.915081,30.374126
162,0,-130.307480,138.774200,45.788795,-32.693306,43.413357,54.392593,7.371909,7.921226,47.487629,32.081203,-21.915272,30.381260
163,0,-130.285278,138.770645,45.812950,-32.688267,43.410603,54.405479,7.461904,7.882177,47.513855,32.107273,-21.854252,30.360960
164,0,-130.298111,138.779938,45.815521,-32.649387,43.433632,54.392700,7.481045,7.916532,47.552677,32.104076,-21.856218,30.381641
165,0,-130.187347,138.777100,45.818707,-32.630177,43.438244,54.389824,7.489193,7.917247,47.547989,32.110435,-21.876118,30.384418
166,0,-130.186310,138.793533,45.816616,-32.651047,43.454205,54.360313,7.491798,7.933890,47.524445,32.109344,-21.837980,30.377787
167,0,-130.168594,138.839615,45.799030,-32.642467,43.480358,54.372944,7.498940,7.954679,47.522701,32.111214,-21.839916,30.365494
168,0,-130.203415,138.874985,45.773041,-32.633339,43.495308,54.353680,7.496097,7.959039,47.539024,32.118931,-21.821012,30.369192
169,0,-130.152115,138.886368,45.771652,-32.626080,43.529720,54.340172,7.441977,7.969896,47.490059,32.082165,-21.875687,30.362431
170,0,-130.148773,138.916412,45.753143,-32.629642,43.564747,54.322029,7.413135,7.943385,47.433277,32.043339,-21.890385,30.365818
171,0,-130.108719,138.909775,45.678005,-32.617832,43.579388,54.275146,7.379987,7.957805,47.450649,31.991549,-21.938736,30.351679
172,0,-130.138290,138.963501,45.631660,-32.622246,43.596981,54.263500,7.317923,7.948775,47.432880,31.881798,-21.970104,30.374537
173,0,-130.109985,138.987106,45.636250,-32.616913,43.648354,54.263649,7.260587,7.920663,47.389870,31.841595,-22.000355,30.355408
174,0,-130.116104,138.957947,45.587738,-32.628948,43.663700,54.219463,7.277240,7.899379,47.383888,31.828188,-22.009560,30.353100
175,0,-130.116440,138.965927,45.552792,-32.627537,43.674450,54.185001,7.281651,7.929392,47.369358,31.804617,-22.014677,30.343204
176,0,-130.072372,138.965118,45.543732,-32.623867,43.665348,54.199596,7.245810,7.934618,47.341785,31.802509,-22.007105,30.360233
177,0,-130.081299,139.008163,45.505192,-32.649818,43.709572,54.188072,7.276705,7.925482,47.381878,31.806335,-22.026953,30.375746
178,0,-130.055481,138.985840,45.478085,-32.620552,43.667240,54.192062,7.291251,7.925159,47.378708,31.812016,-22.031319,30.372910
179,0,-130.036545,138.984924,45.426697,-32.626949,43.700962,54.176529,7.316346,7.935889,47.380421,31.831808,-21.976505,30.363615
180,0,-130.048721,138.979050,45.432968,-32.610386,43.677437,54.179863,7.317440,7.937743,47.382149,31.874844,-21.990360,30.375088
181,0,-130.024750,138.972916,45.416897,-32.621582,43.686836,54.152454,7.333449,7.969419,47.382797,31.883829,-21.973505,30.377594
182,0,-130.021637,138.962845,45.341991,-32.573502,43.704353,54.172512,7.366416,7.986074,47.384335,31.909395,-21.970942,30.367720
183,0,-129.988632,138.967926,45.332329,-32.558022,43.704567,54.142475,7.359982,8.005923,47.357452,31.938597,-21.930948,30.368147
184,0,-129.981995,138.956772,45.302933,-32.564014,43.702473,54.128166,7.394477,8.001322,47.358006,31.964518,-21.922329,30.357950
185,0,-129.973755,138.963287,45.239506,-32.564430,43.719952,54.106308,7.388658,8.054991,47.343643,31.962351,-21.886364,30.357428
186,0,-129.987442,138.955750,45.175587,-32.615253,43.742149,54.121452,7.392682,8.058278,47.332951,31.967777,-21.880810,30.355783
187,0,-130.016449,138.929031,45.147957,-32.602867,43.764843,54.103481,7.393055,8.058383,47.331387,31.972338,-21.840403,30.350662
188,0,-130.070572,138.942688,45.127289,-32.621155,43.759392,54.102592,7.370054,8.062274,47.329670,31.976238,-21.841669,30.354141
189,0,-130.071793,138.939545,45.139816,-32.638790,43.743530,54.092564,7.394465,8.058442,47.334541,31.982500,-21.858536,30.372272
190,0,-130.111938,138.940491,45.110905,-32.669849,43.758686,54.072781,7.374902,8.067244,47.334393,31.968613,-21.858919,30.350727
191,0,-130.111023,138.917770,45.033684,-32.662003,43.754150,54.073639,7.353391,8.055230,47.326557,31.944878,-21.830221,30.338737
192,0,-130.145844,138.911484,45.007412,-32.697891,43.713425,54.061092,7.339665,8.061540,47.327801,31.941769,-21.833075,30.331305
193,0,-130.173309,138.915817,45.000904,-32.707848,43.725967,54.043087,7.332880,8.074473,47.302200,31.948223,-21.832230,30.340054
194,0,-130.214233,138.906235,44.968807,-32.692768,43.738201,54.044895,7.353112,8.088793,47.304699,31.958540,-21.816877,30.334427
195,0,-130.217621,138.883194,44.960453,-32.725418,43.732750,54.042519,7.356756,8.090939,47.302147,31.953320,-21.817400,30.331791
196,0,-130.186157,138.868484,44.952709,-32.728752,43.731068,54.041832,7.344624,8.073005,47.304264,31.960550,-21.819805,30.337023
197,0,-130.218491,138.882980,44.911175,-32.733017,43.729862,54.036251,7.353564,8.088411,47.307011,31.955919,-21.815231,30.339520
198,0,-130.252747,138.861893,44.869816,-32.732040,43.738522,54.027519,7.338670,8.096328,47.284061,31.959322,-21.816570,30.340830
199,0,-130.291702,138.892334,44.849876,-32.733967,43.735931,54.029366,7.353116,8.093667,47.308735,31.955992,-21.805050,30.329275
200,0,-130.284348,138.830688,44.840679,-32.736282,43.722504,54.030106,7.347807,8.093741,47.308937,31.968328,-21.822134,30.316351
201,0,-130.285645,138.842773,44.824474,-32.733002,43.724133,54.028831,7.348198,8.085162,47.305340,31.948719,-21.821379,30.333746
202,0,-130.306259,138.847672,44.819447,-32.761234,43.728752,54.013046,7.352867,8.091629,47.302589,31.980883,-21.800303,30.338669
203,0,-130.279694,138.825241,44.798489,-32.751453,43.744194,53.982819,7.342456,8.094923,47.285778,31.955980,-21.815287,30.332304
204,0,-130.320740,138.816147,44.726536,-32.754074,43.721256,53.989204,7.340338,8.095345,47.288372,31.960014,-21.813128,30.330126
205,0,-130.289291,138.810318,44.729252,-32.763672,43.715931,53.972668,7.329035,8.127990,47.273323,31.970461,-21.818705,30.320620
206,0,-130.296524,138.820984,44.710651,-32.744255,43.725761,53.967560,7.327105,8.113989,47.286499,31.963501,-21.797091,30.316402
207,0,-130.294693,138.818192,44.711113,-32.751472,43.748539,53.973564,7.328836,8.117739,47.283978,31.981894,-21.781706,30.317270
208,0,-130.293701,138.816956,44.708382,-32.750366,43.770451,53.971455,7.367154,8.132565,47.290714,31.965855,-21.777657,30.341040
209,0,-130.282883,138.815460,44.705746,-32.741066,43.772545,53.980148,7.364339,8.129058,47.293674,32.007496,-21.763887,30.335899
210,0,-130.233322,138.787979,44.705288,-32.718334,43.768051,53.975716,7.419694,8.124780,47.317505,32.045162,-21.750334,30.324593
211,0,-130.194687,138.837463,44.681274,-32.690453,43.779087,53.975597,7.462241,8.140179,47.323631,32.086246,-21.797716,30.368999
212,0,-130.168594,138.802872,44.706398,-32.639828,43.787315,53.986801,7.490875,8.137956,47.369831,32.080261,-21.698992,30.358694
213,0,-130.195587,138.836014,44.682968,-32.642136,43.798805,53.968483,7.446903,8.142920,47.324661,32.101284,-21.821926,30.356979
214,0,-130.167084,138.803665,44.703190,-32.637856,43.772301,53.975811,7.443523,8.143514,47.318043,32.101540,-21.816469,30.359516
215,0,-130.159592,138.799805,44.715549,-32.623421,43.772854,54.000648,7.445844,8.150104,47.288784,32.107887,-21.818363,30.361738
216,0,-130.167389,138.790161,44.771282,-32.609241,43.753563,54.013077,7.450841,8.137948,47.329353,32.083679,-21.830109,30.379736
217,0,-130.143723,138.802643,44.842743,-32.622971,43.738026,54.023403,7.497559,8.112669,47.384384,32.115055,-21.774084,30.343637
218,0,-130.174530,138.798676,44.895645,-32.636406,43.744881,54.031315,7.450031,8.104305,47.331821,32.104740,-21.835102,30.362553
219,0,-130.168152,138.835052,44.938190,-32.630699,43.702564,54.068951,7.456419,8.107629,47.349972,32.098736,-21.857170,30.358042
220,0,-130.144623,138.855286,45.038662,-32.587288,43.717628,54.112411,7.451571,8.108932,47.375191,32.075645,-21.848673,30.383022
221,0,-130.142578,138.897263,45.095535,-32.578575,43.730209,54.128429,7.448947,8.124814,47.366322,32.093933,-21.840460,30.364767
222,0,-130.146240,138.929764,45.151474,-32.551357,43.779102,54.153381,7.559186,8.111042,47.402740,32.095428,-21.721285,30.334734
223,0,-130.139023,138.987137,45.233570,-32.511452,43.791061,54.172138,7.598499,8.125802,47.428776,32.124260,-21.744143,30.344957
224,0,-130.116821,138.994019,45.243092,-32.463432,43.805733,54.204464,7.601827,8.117804,47.443089,32.123501,-21.752714,30.344408
225,0,-130.084885,139.047104,45.304325,-32.467228,43.837326,54.209538,7.571537,8.138344,47.391136,32.134846,-21.773581,30.348455
226,0,-130.087616,139.044052,45.289913,-32.406151,43.875725,54.204769,7.570636,8.147294,47.385117,32.150593,-21.762060,30.358545
227,0,-130.038528,138.999649,45.319290,-32.399776,43.877628,54.208057,7.596598,8.140355,47.392517,32.155933,-21.767939,30.353539
228,0,-130.040039,139.008148,45.307579,-32.411568,43.844105,54.209328,7.586761,8.154099,47.369358,32.149830,-21.771055,30.353052
229,0,-130.078247,138.964371,45.319416,-32.435730,43.804882,54.199646,7.664400,8.128835,47.438732,32.146935,-21.722572,30.320608
230,0,-130.106552,138.963943,45.336857,-32.440948,43.784523,54.203102,7.615992,8.117443,47.441940,32.149918,-21.735493,30.359419
231,0,-130.139313,138.927795,45.377789,-32.452129,43.767723,54.234249,7.610879,8.120790,47.440819,32.126156,-21.726200,30.380180
232,0,-130.185883,138.939148,45.394451,-32.465569,43.753010,54.224785,7.593987,8.117911,47.440735,32.119186,-21.745829,30.359690
233,0,-130.221024,138.919098,45.384464,-32.502937,43.744511,54.227386,7.573705,8.142900,47.443001,32.116982,-21.760216,30.340670
234,0,-130.247375,138.919418,45.419807,-32.514240,43.752808,54.253830,7.583732,8.128927,47.451660,32.111732,-21.733215,30.346489
235,0,-130.283386,138.936935,45.435955,-32.510998,43.751160,54.240780,7.575116,8.129636,47.442513,32.123062,-21.746637,30.345137
236,0,-130.279526,138.883911,45.443050,-32.531967,43.741783,54.265301,7.597634,8.096130,47.464066,32.095848,-21.728239,30.348566
237,0,-130.362137,138.875336,45.463116,-32.519974,43.747551,54.259308,7.562676,8.133381,47.457542,32.097897,-21.704632,30.366098
238,0,-130.392105,138.885483,45.458115,-32.528080,43.710880,54.280476,7.539401,8.119518,47.442951,32.088917,-21.702961,30.358755
239,0,-130.418808,138.864746,45.464424,-32.559155,43.701290,54.288189,7.544100,8.118399,47.447140,32.073578,-21.690517,30.361425
240,0,-130.455795,138.836899,45.436092,-32.558693,43.699158,54.287846,7.529391,8.077461,47.453339,32.086948,-21.706873,30.337727
241,0,-130.454514,138.794434,45.417137,-32.589886,43.664200,54.301186,7.498366,8.082032,47.444450,32.051346,-21.718861,30.332672
242,0,-130.502670,138.762466,45.424477,-32.614326,43.632595,54.285435,7.495930,8.083016,47.439777,32.111759,-21.750900,30.356127
243,0,-130.534805,138.744949,45.412945,-32.605541,43.613350,54.292927,7.480374,8.067240,47.447212,32.069180,-21.730955,30.338469
244,0,-130.570633,138.731888,45.430260,-32.658218,43.610554,54.298882,7.495555,8.058264,47.453671,32.068810,-21.749580,30.356054
245,0,-130.606277,138.713943,45.440693,-32.680588,43.597721,54.298450,7.449460,8.022724,47.457111,32.052132,-21.746750,30.347538
246,0,-130.637207,138.710983,45.431442,-32.688465,43.586151,54.287716,7.430991,8.015360,47.386673,32.029793,-21.803902,30.363297
247,0,-130.638107,138.703232,45.418301,-32.704323,43.596893,54.280079,7.442664,8.037676,47.423931,32.048351,-21.743233,30.346392
248,0,-130.646835,138.711807,45.412830,-32.717159,43.604393,54.273804,7.434008,8.067858,47.438530,32.051235,-21.725773,30.320826
249,0,-130.640060,138.691437,45.394238,-32.721352,43.606007,54.269924,7.358332,8.047488,47.346096,32.015251,-21.794239,30.358866
250,0,-130.643860,138.727905,45.403217,-32.739841,43.586445,54.236931,7.373867,8.026615,47.366611,32.020226,-21.783401,30.342899
251,0,-130.625732,138.699188,45.385845,-32.712856,43.591736,54.234379,7.355443,8.062704,47.359898,31.993113,-21.776464,30.352905
252,0,-130.628525,138.736588,45.385437,-32.720142,43.642693,54.212440,7.430696,8.046650,47.403538,32.028362,-21.717279,30.331326
253,0,-130.596161,138.723755,45.360443,-32.705532,43.618420,54.217960,7.421071,8.044401,47.404533,32.016739,-21.739311,30.312281
254,0,-130.598434,138.745331,45.317234,-32.714649,43.630413,54.217327,7.384257,8.085730,47.342827,32.008602,-21.778198,30.358702
255,0,-130.580139,138.745377,45.291504,-32.736614,43.660706,54.199745,7.392632,8.090154,47.333363,32.014656,-21.783607,30.333807
256,0,-130.574265,138.755569,45.263641,-32.723583,43.662045,54.193546,7.370587,8.108795,47.361862,31.997192,-21.777122,30.356293
257,0,-130.621994,138.782776,45.256393,-32.727715,43.658150,54.191753,7.369638,8.104841,47.331059,31.988636,-21.754225,30.359983
258,0,-130.582840,138.773193,45.206203,-32.725002,43.656872,54.177814,7.352262,8.096531,47.328751,31.986229,-21.760866,30.346424
259,0,-130.630096,138.832382,45.161217,-32.743767,43.679729,54.162823,7.371239,8.112021,47.335243,31.962950,-21.769053,30.358564
260,0,-130.610168,138.821594,45.150440,-32.736698,43.699547,54.146847,7.344192,8.097802,47.322968,31.983892,-21.746593,30.358339
261,0,-130.595551,138.839203,45.112438,-32.728035,43.709202,54.112354,7.339923,8.106129,47.312351,31.960562,-21.750303,30.332359
262,0,-130.607071,138.875565,45.046040,-32.756596,43.730804,54.100849,7.339553,8.136735,47.289700,31.986858,-21.739391,30.336664
263,0,-130.609833,138.849106,45.003117,-32.752716,43.735519,54.091438,7.338694,8.172592,47.288605,31.988136,-21.735012,30.334286
264,0,-130.570770,138.870377,44.983246,-32.740673,43.742218,54.070393,7.305306,8.161616,47.265469,31.962633,-21.685411,30.334675
265,0,-130.558136,138.882812,44.897392,-32.736027,43.754761,54.057419,7.382166,8.140663,47.309689,31.999874,-21.623695,30.304869
266,0,-130.545441,138.894714,44.876122,-32.734104,43.747425,54.040527,7.334276,8.192919,47.280289,31.986530,-21.714588,30.331001
267,0,-130.581711,138.928070,44.830696,-32.758297,43.785236,54.022003,7.342106,8.216297,47.264507,32.008602,-21.715519,30.335129
268,0,-130.541168,138.940369,44.755119,-32.762562,43.793652,53.988602,7.336858,8.217113,47.262009,31.969336,-21.682272,30.338369
269,0,-130.522324,138.952484,44.725239,-32.739330,43.809124,53.980591,7.366639,8.220706,47.263165,31.997938,-21.688347,30.330379
270,0,-130.518417,138.954666,44.642269,-32.748013,43.823376,53.958927,7.410544,8.229059,47.273716,32.010090,-21.591547,30.317896
271,0,-130.506409,138.961472,44.592983,-32.772671,43.853432,53.960396,7.365407,8.269488,47.211021,32.012951,-21.679749,30.324951
272,0,-130.520142,138.990784,44.529396,-32.715763,43.814213,53.925659,7.373449,8.246819,47.212135,31.986404,-21.649069,30.331896
273,0,-130.494507,138.963867,44.475937,-32.747391,43.848160,53.910080,7.353746,8.264210,47.212955,31.990051,-21.642454,30.330868
274,0,-130.511429,138.996689,44.427189,-32.768070,43.878139,53.876713,7.385709,8.284801,47.254616,31.979843,-21.580091,30.301846
275,0,-130.469788,139.007263,44.366077,-32.759300,43.920513,53.845581,7.326129,8.284655,47.207664,31.972580,-21.633991,30.341093
276,0,-130.495316,138.967514,44.290051,-32.759895,43.919575,53.823788,7.329841,8.283350,47.185867,31.960230,-21.627468,30.327312
277,0,-130.462967,139.004456,44.234226,-32.780235,43.903526,53.775364,7.352101,8.309187,47.150040,31.960804,-21.624304,30.314402
278,0,-130.501312,139.006882,44.168636,-32.785275,43.952644,53.730526,7.389788,8.305312,47.191097,32.000122,-21.544220,30.297174
279,0,-130.511353,139.044724,44.121277,-32.801994,43.963772,53.723228,7.315004,8.323290,47.133492,32.001953,-21.613161,30.323603
280,0,-130.531204,139.024994,44.080803,-32.785995,43.986408,53.699799,7.350383,8.337282,47.117836,32.005241,-21.585617,30.317814
281,0,-130.522934,139.042633,44.052883,-32.768963,43.996159,53.704994,7.338637,8.338771,47.116863,31.998169,-21.587009,30.313362
282,0,-130.513901,139.069321,43.985558,-32.767395,44.001144,53.674618,7.327624,8.396181,47.108433,31.972847,-21.580753,30.317530
283,0,-130.505096,139.088623,43.951088,-32.757301,44.042934,53.638718,7.376731,8.376134,47.129635,31.987406,-21.511415,30.277250
284,0,-130.494614,139.080856,43.894272,-32.776550,44.055885,53.634388,7.344115,8.406640,47.084732,31.984520,-21.581028,30.308273
285,0,-130.449783,139.077347,43.867783,-32.750439,44.067825,53.619095,7.339853,8.426264,47.082336,32.007866,-21.571550,30.311049
286,0,-130.446350,139.099243,43.797749,-32.771690,44.077698,53.610321,7.343090,8.427076,47.079853,32.018848,-21.534412,30.309559
287,0,-130.452637,139.143829,43.774818,-32.774509,44.089397,53.588394,7.372093,8.431298,47.075497,31.987879,-21.521805,30.283695
288,0,-130.426697,139.112640,43.710823,-32.740894,44.121746,53.556419,7.398082,8.424456,47.080704,32.030563,-21.531385,30.310331
289,0,-130.399734,139.148026,43.686344,-32.711246,44.135189,53.558071,7.370478,8.427925,47.069199,32.026276,-21.535116,30.320017
290,0,-130.412903,139.143372,43.637028,-32.728779,44.132572,53.545189,7.392566,8.459897,47.053627,32.050060,-21.517950,30.295912
291,0,-130.356781,139.143661,43.601463,-32.704811,44.123585,53.528370,7.397261,8.446445,47.072193,32.067219,-21.553331,30.298128
292,0,-130.314316,139.165588,43.580212,-32.716656,44.138321,53.539555,7.399894,8.426822,47.072235,32.060101,-21.547989,30.303875
293,0,-130.307632,139.184723,43.576359,-32.711468,44.141739,53.530941,7.416757,8.434126,47.076645,32.078636,-21.560041,30.287712
294,0,-130.276199,139.221848,43.574249,-32.639645,44.121178,53.531067,7.447064,8.445041,47.084599,32.085869,-21.559397,30.290052
295,0,-130.212387,139.220428,43.526016,-32.648026,44.149719,53.536160,7.431599,8.450515,47.087559,32.080162,-21.565954,30.288221
296,0,-130.182587,139.268768,43.515713,-32.644215,44.159908,53.509212,7.435982,8.469317,47.067284,32.056248,-21.536476,30.292692
297,0,-130.174805,139.300354,43.501476,-32.601341,44.183403,53.529095,7.461874,8.486753,47.079758,32.066479,-21.559513,30.299217
298,0,-130.154785,139.338120,43.493637,-32.611095,44.193321,53.512833,7.460394,8.486876,47.063206,32.105213,-21.562092,30.304289
299,0,-130.117096,139.354736,43.520531,-32.596935,44.211315,53.536694,7.475178,8.472437,47.089161,32.098797,-21.516485,30.316896
300,0,-130.118011,139.380829,43.534134,-32.580166,44.203369,53.541428,7.475946,8.471124,47.091393,32.078701,-21.510855,30.328001
301,0,-130.105560,139.393250,43.553020,-32.563805,44.226742,53.561874,7.489052,8.469344,47.083443,32.090958,-21.555256,30.330156
302,0,-130.096878,139.438065,43.549522,-32.542454,44.224957,53.567181,7.481994,8.471331,47.087631,32.094143,-21.538700,30.293747
303,0,-130.104523,139.439209,43.545231,-32.542282,44.235615,53.557968,7.506508,8.466087,47.104538,32.099712,-21.535570,30.315573
304,0,-130.104202,139.441788,43.591396,-32.526356,44.216213,53.585114,7.534401,8.493683,47.113571,32.090874,-21.532858,30.347609
305,0,-130.089203,139.477310,43.593224,-32.534134,44.244518,53.570698,7.525792,8.516958,47.099846,32.087933,-21.536592,30.338966
306,0,-130.114410,139.485001,43.576363,-32.521629,44.277134,53.598804,7.509828,8.553590,47.111866,32.085499,-21.512529,30.340004
307,0,-130.072632,139.498291,43.563068,-32.524593,44.248150,53.584496,7.493425,8.534471,47.083996,32.095634,-21.508539,30.345442
308,0,-130.086349,139.510956,43.581676,-32.541878,44.265072,53.555889,7.461144,8.533295,47.064545,32.066448,-21.507963,30.314823
309,0,-130.087646,139.502548,43.584229,-32.563229,44.254013,53.560944,7.459814,8.541887,47.055614,32.040039,-21.501648,30.301289
310,0,-130.116058,139.488876,43.574863,-32.569416,44.242306,53.556812,7.453194,8.555524,47.057919,32.031124,-21.489882,30.310955
311,0,-130.129898,139.512344,43.579487,-32.570412,44.249535,53.560200,7.442839,8.527532,47.062897,32.040848,-21.489990,30.298101
312,0,-130.137589,139.515442,43.585129,-32.564045,44.234570,53.585243,7.447309,8.526228,47.064362,32.056110,-21.489435,30.318802
313,0,-130.129333,139.504440,43.600418,-32.594109,44.242836,53.584743,7.430943,8.528634,47.051849,32.064053,-21.501825,30.289803
314,0,-130.139236,139.516220,43.602356,-32.554249,44.262497,53.607536,7.470765,8.526875,47.058899,32.064640,-21.501850,30.293594
315,0,-130.139053,139.533035,43.622627,-32.544758,44.262730,53.617954,7.442771,8.548637,47.054890,32.061749,-21.479282,30.285398
316,0,-130.155045,139.524704,43.669479,-32.544479,44.257843,53.622715,7.480049,8.521006,47.095566,32.062885,-21.489933,30.300564
317,0,-130.160126,139.528000,43.674904,-32.533478,44.234337,53.668476,7.506416,8.539261,47.101780,32.078228,-21.502703,30.332493
318,0,-130.159943,139.530243,43.668598,-32.536610,44.252331,53.698532,7.470108,8.523477,47.132275,32.085812,-21.515642,30.346348
319,0,-130.162506,139.523727,43.705868,-32.548508,44.216614,53.706570,7.520281,8.494790,47.145454,32.081902,-21.512451,30.313942
320,0,-130.185486,139.500854,43.716381,-32.536865,44.187630,53.708874,7.507373,8.517285,47.148220,32.086426,-21.512100,30.325964
321,0,-130.180756,139.499985,43.764446,-32.539982,44.170834,53.719318,7.526057,8.457843,47.144516,32.097897,-21.559002,30.331636
322,0,-130.189331,139.469879,43.772018,-32.545841,44.158207,53.732761,7.524450,8.438757,47.143742,32.117638,-21.562359,30.337191
323,0,-130.194672,139.468170,43.800072,-32.529324,44.161339,53.755032,7.491208,8.458169,47.156811,32.107407,-21.537392,30.320095
324,0,-130.224869,139.470413,43.852249,-32.557037,44.153919,53.744019,7.501994,8.429266,47.145344,32.121296,-21.587990,30.346493
325,0,-130.245712,139.510406,43.878235,-32.549778,44.153988,53.750420,7.480241,8.430317,47.146133,32.063084,-21.545086,30.318966
326,0,-130.233444,139.507126,43.893894,-32.553543,44.148636,53.772335,7.488635,8.449595,47.146011,32.060085,-21.552120,30.350697
327,0,-130.199890,139.479309,43.911484,-32.559124,44.150391,53.768082,7.506281,8.419936,47.135643,32.042625,-21.532259,30.316807
328,0,-130.211792,139.513611,43.947113,-32.559998,44.147423,53.772465,7.481370,8.447309,47.148972,32.027740,-21.550249,30.326950
329,0,-130.232315,139.521408,43.981934,-32.539806,44.133102,53.804314,7.453175,8.455731,47.162537,32.020317,-21.549372,30.323183
330,0,-130.180374,139.520370,44.048538,-32.535580,44.129311,53.810074,7.478596,8.422787,47.183956,32.059620,-21.553440,30.309103
331,0,-130.196808,139.473587,44.075893,-32.525181,44.131924,53.799961,7.498857,8.428247,47.143692,32.073570,-21.555464,30.337452
332,0,-130.176285,139.499619,44.082275,-32.547516,44.139839,53.798813,7.499381,8.426795,47.146568,32.046497,-21.544769,30.302151
333,0,-130.207184,139.516174,44.153347,-32.532661,44.118530,53.815571,7.470005,8.453963,47.158592,32.051109,-21.529949,30.314188
334,0,-130.212006,139.462250,44.184883,-32.542652,44.110138,53.824562,7.443191,8.456699,47.177559,32.078659,-21.546484,30.352579
335,0,-130.207001,139.458435,44.206448,-32.548820,44.107834,53.861649,7.467826,8.384643,47.192944,32.063713,-21.564220,30.339867
336,0,-130.211868,139.468979,44.245113,-32.551502,44.082150,53.874977,7.482298,8.374597,47.198856,32.056297,-21.558636,30.349991
337,0,-130.239594,139.433762,44.267464,-32.552860,44.057056,53.891125,7.440245,8.399678,47.200478,32.038685,-21.586832,30.343819
338,0,-130.242386,139.412720,44.280403,-32.572845,44.058147,53.897316,7.434762,8.389335,47.188797,32.031189,-21.594540,30.333313
339,0,-130.280212,139.400970,44.279343,-32.595352,44.053654,53.854378,7.426084,8.404022,47.163601,32.002682,-21.573635,30.298296
340,0,-130.281952,139.398224,44.293472,-32.607285,44.047554,53.826607,7.414135,8.383660,47.143745,32.021317,-21.581869,30.314785
341,0,-130.327820,139.403656,44.301880,-32.612480,44.048721,53.825901,7.417349,8.390001,47.152756,31.995058,-21.566536,30.313017
342,0,-130.315277,139.383057,44.312248,-32.643753,44.074280,53.817238,7.412606,8.387249,47.155041,31.989489,-21.597786,30.292955
343,0,-130.324768,139.370361,44.323181,-32.656487,44.034344,53.810356,7.384222,8.384919,47.143867,31.971333,-21.588856,30.308399
344,0,-130.326462,139.376144,44.312424,-32.675186,44.052811,53.799568,7.361545,8.392848,47.133572,31.978458,-21.620434,30.299364
345,0,-130.331985,139.354218,44.327263,-32.649681,44.011871,53.800671,7.379287,8.371910,47.122158,31.991392,-21.589718,30.315643
346,0,-130.337082,139.337173,44.324486,-32.653637,44.007172,53.788094,7.385144,8.367455,47.132629,31.983231,-21.583996,30.315384
347,0,-130.348526,139.298370,44.315315,-32.693932,44.002956,53.794876,7.346534,8.363203,47.105240,31.975235,-21.605560,30.318062
348,0,-130.365036,139.287292,44.320061,-32.727131,43.990322,53.755821,7.342855,8.362097,47.099041,31.985939,-21.610641,30.299904
349,0,-130.394272,139.278854,44.306763,-32.753864,43.966335,53.746487,7.316583,8.374057,47.105984,31.985853,-21.593828,30.293734
350,0,-130.395157,139.273102,44.323326,-32.780361,43.966442,53.757759,7.308509,8.357193,47.096809,31.966452,-21.582712,30.308289
351,0,-130.364990,139.280991,44.348335,-32.785675,43.975941,53.743481,7.289991,8.338795,47.113277,31.969973,-21.562651,30.305246
352,0,-130.389603,139.267868,44.340660,-32.793583,43.990192,53.726715,7.302447,8.372018,47.095280,31.940609,-21.588703,30.278233
353,0,-130.359421,139.314804,44.340965,-32.793102,43.987293,53.717781,7.280868,8.355141,47.084682,31.932558,-21.567043,30.282043
354,0,-130.358017,139.313156,44.319889,-32.805607,44.003803,53.724003,7.282048,8.354177,47.081036,31.932131,-21.583809,30.298199
355,0,-130.333420,139.305023,44.321236,-32.805737,44.003559,53.710690,7.295460,8.353851,47.085007,31.908136,-21.603333,30.317251
356,0,-130.343796,139.296188,44.335255,-32.829445,43.981449,53.695457,7.287328,8.343016,47.105091,31.899527,-21.606791,30.299080
357,0,-130.347672,139.294159,44.272835,-32.837410,43.957794,53.670277,7.276671,8.341772,47.078800,31.899538,-21.604624,30.293331
358,0,-130.351624,139.249023,44.267246,-32.856670,43.940273,53.660610,7.245252,8.339587,47.101315,31.927105,-21.625072,30.324492
359,0,-130.343719,139.246765,44.266193,-32.856365,43.934875,53.671234,7.246938,8.325667,47.081291,31.882029,-21.634264,30.302032
360,0,-130.342453,139.228683,44.270844,-32.908283,43.908894,53.631161,7.197422,8.328650,47.090393,31.837433,-21.601757,30.304066
361,0,-130.349335,139.199265,44.269112,-32.936169,43.908119,53.643433,7.189303,8.292259,47.071560,31.835642,-21.605154,30.303961
362,0,-130.371231,139.217636,44.249401,-32.964111,43.877510,53.612835,7.157655,8.273084,47.069782,31.838608,-21.625139,30.314686
363,0,-130.401291,139.230362,44.242844,-32.994465,43.881702,53.601952,7.114725,8.279305,47.039345,31.798426,-21.641235,30.306885
364,0,-130.429947,139.175156,44.208027,-33.038872,43.880165,53.579536,7.093971,8.264631,47.030708,31.792606,-21.639463,30.293440
365,0,-130.446609,139.169968,44.194942,-33.070271,43.881218,53.566013,7.085772,8.268215,47.026550,31.791492,-21.648628,30.305334
366,0,-130.458328,139.149506,44.112076,-33.099201,43.856533,53.510067,7.046698,8.256800,47.014095,31.778530,-21.644819,30.281437
367,0,-130.477829,139.167053,44.080303,-33.125099,43.855873,53.486324,6.999197,8.271588,47.007050,31.722277,-21.622671,30.278118
368,0,-130.486877,139.110703,44.019283,-33.161774,43.834930,53.446018,6.971292,8.242757,46.998077,31.680927,-21.658117,30.290262
369,0,-130.476303,139.064514,43.979298,-33.203995,43.858650,53.413433,6.956759,8.234149,46.953922,31.665598,-21.641096,30.270361
370,0,-130.488174,139.040237,43.887917,-33.271187,43.829479,53.353844,6.870689,8.242854,46.955463,31.658545,-21.652632,30.247887
371,0,-130.471527,139.043793,43.798012,-33.293587,43.847744,53.303329,6.867737,8.230287,46.923321,31.641531,-21.668682,30.251963
372,0,-130.460449,138.992142,43.704803,-33.301533,43.827293,53.241539,6.846195,8.216496,46.908287,31.646420,-21.660482,30.262426
373,0,-130.462952,138.972992,43.642540,-33.338745,43.843166,53.169971,6.770734,8.237966,46.879448,31.637184,-21.654436,30.299362
374,0,-130.476624,138.941666,43.612408,-33.369137,43.840805,53.103889,6.734939,8.269692,46.824432,31.621378,-21.663626,30.280001
375,0,-130.498062,138.927521,43.552547,-33.408794,43.827438,53.065952,6.704116,8.254345,46.806393,31.572834,-21.677280,30.266321
376,0,-130.506821,138.883957,43.491795,-33.469597,43.804546,53.019005,6.661543,8.220760,46.778938,31.535559,-21.630102,30.266693
377,0,-130.506439,138.858627,43.479954,-33.492783,43.801102,52.969604,6.631934,8.204324,46.763790,31.534660,-21.632063,30.268190
378,0,-130.526993,138.861374,43.476223,-33.555267,43.808815,52.957336,6.580293,8.206259,46.726627,31.499191,-21.666599,30.254015
379,0,-130.528427,138.871338,43.442352,-33.562706,43.787697,52.902020,6.563445,8.214498,46.738491,31.512690,-21.660311,30.254101
380,0,-130.559723,138.896622,43.366516,-33.603149,43.815205,52.887543,6.498443,8.211202,46.716339,31.469170,-21.648806,30.257830
381,0,-130.498642,138.873672,43.343910,-33.608818,43.825546,52.823555,6.495327,8.228167,46.693195,31.482086,-21.643349,30.250160
382,0,-130.461029,138.870895,43.221394,-33.620945,43.847980,52.770576,6.489673,8.249597,46.642418,31.463478,-21.633984,30.246916
383,0,-130.474121,138.885605,43.104904,-33.638577,43.839375,52.668194,6.436491,8.274658,46.606213,31.450342,-21.620581,30.202374
384,0,-130.531708,138.839951,43.118610,-33.663803,43.870544,52.544621,6.446879,8.288536,46.559597,31.463902,-21.600485,30.210602
385,0,-130.368759,138.814056,42.883518,-33.706055,43.879520,52.437561,6.433883,8.289349,46.523224,31.445902,-21.597240,30.218279
386,0,-130.490707,138.778519,42.950878,-33.751221,43.873390,52.334419,6.356004,8.319654,46.485706,31.411119,-21.584694,30.205168
387,0,-130.390594,138.719238,42.828983,-33.812908,43.847809,52.297913,6.333366,8.278662,46.466156,31.357866,-21.663166,30.201963
388,0,-130.384842,138.681656,42.847176,-33.828865,43.794506,52.287346,6.305356,8.225224,46.478565,31.370111,-21.683878,30.217598
389,0,-130.409332,138.673950,43.014893,-33.826668,43.741898,52.340240,6.306929,8.205764,46.504379,31.410885,-21.761148,30.229111
390,0,-130.342560,138.716522,43.333557,-33.726440,43.718452,52.534382,6.399342,8.110867,46.601631,31.464401,-21.757029,30.264814
391,0,-130.254303,138.755402,43.833733,-33.532898,43.701832,52.876553,6.529272,8.064495,46.730972,31.553953,-21.846373,30.287464
392,0,-130.246826,138.956467,44.739067,-33.280830,43.605736,53.334419,6.805928,7.997648,47.011513,31.649496,-21.906921,30.334564
393,0,-130.227341,139.272766,46.073696,-32.910427,43.461624,54.123199,7.119671,7.810962,47.369682,31.833124,-21.986910,30.345840
394,0,-130.061279,139.683472,47.778355,-32.261028,43.290714,55.321732,7.455462,7.575849,47.834671,32.000576,-22.132992,30.450739
395,0,-129.825699,140.317001,49.985695,-31.366661,43.151600,56.988636,7.988295,7.272136,48.450150,32.176243,-22.342794,30.584078
396,0,-129.226562,141.136444,52.475189,-30.322136,43.001976,59.326019,8.785420,6.922255,49.416351,32.516872,-22.494806,30.816214
397,0,-128.238266,142.027298,55.242489,-28.828844,43.341732,62.462093,9.853239,6.745312,50.865021,32.713188,-22.674011,31.178404
398,0,-126.974243,143.099091,58.243248,-26.924906,44.114491,66.445038,11.226171,6.665949,53.132324,32.727753,-22.806746,31.768600
399,0,-125.202789,144.219635,61.471230,-24.590620,45.143032,71.241341,12.691602,6.415524,55.660759,32.655041,-22.781332,32.429817
400,0,-123.141998,145.345993,64.953552,-21.833143,46.448040,76.559738,14.495160,6.358222,58.798927,32.571697,-22.384476,33.171608
401,0,-120.474815,146.462830,68.717194,-18.671202,47.866062,82.518417,16.845896,6.727265,62.739296,33.146999,-21.154587,34.726353
402,0,-117.624062,147.649139,72.777817,-15.264447,49.399277,88.938095,19.571110,7.755255,67.904289,35.082355,-19.596722,38.558968
403,0,-114.485893,148.895035,77.038193,-11.985614,51.040855,95.600456,23.076990,9.358831,74.703201,38.722210,-17.857723,45.273861
404,0,-111.145218,150.174225,81.525528,-8.987656,52.688408,102.592690,27.163933,11.324274,83.032372,43.686947,-15.987303,54.153263
405,0,-107.351807,151.449844,86.279335,-5.837619,54.383511,109.827927,31.497755,13.274072,92.306419,49.475872,-14.324423,64.489258
406,0,-103.238480,152.764297,91.194870,-2.578648,56.257706,117.047203,35.735661,15.817343,101.553749,55.223614,-12.011813,74.942970
407,0,-98.674614,154.226807,96.358086,1.267439,58.175728,124.458885,40.374378,18.070253,111.001991,61.001125,-10.000939,85.301239
408,0,-93.666641,155.680878,101.541626,5.761178,60.330029,131.875534,45.259556,20.242956,120.098747,66.747116,-8.014823,95.066612
409,0,-87.989052,157.199524,106.398956,10.350645,62.592903,139.086731,50.277397,22.347942,128.672638,72.262253,-5.989720,104.159561
410,0,-82.165031,158.993484,111.854385,16.056721,65.178314,146.423721,55.734962,24.653774,136.967316,78.245514,-3.824407,112.775871
411,0,-75.718315,160.988403,117.095650,22.280687,67.940506,153.571793,61.916756,27.208206,144.849014,84.611435,-1.403753,120.965706
412,0,-68.830978,163.096191,122.438354,29.086525,70.875671,160.281509,68.817055,30.019258,152.418655,91.760468,1.334234,128.875610
413,0,-61.210258,165.247009,127.306862,36.457050,73.874474,166.581345,76.217911,33.115501,159.373108,99.596848,4.262039,136.369568
414,0,-53.221565,167.428085,132.406342,44.455387,76.948235,172.389084,84.470139,36.412560,165.896713,108.116440,7.377657,143.349915
415,0,-44.978275,170.199677,137.294983,52.914143,80.059410,177.650787,93.296494,39.756649,171.835983,117.240433,10.683205,149.804977
416,0,-36.369701,171.080200,141.616104,62.026363,83.215744,182.411774,102.523285,43.269512,176.994019,126.885651,14.137457,155.455597
417,0,-27.824179,172.945679,146.238327,71.497589,86.324516,186.579529,112.321465,46.809315,181.516205,137.065689,17.860289,160.210327
418,0,-19.561916,174.997437,150.781967,81.213593,89.312393,190.262726,122.580559,50.469078,185.264252,147.836838,21.853613,164.100037
419,0,-11.260213,176.436554,155.178284,91.007118,92.080322,193.515442,133.233749,54.214348,188.320938,159.100357,26.290861,167.082047
420,0,-3.241567,178.189301,159.560059,100.899811,94.635712,196.327026,144.075119,58.031158,190.729843,170.775238,30.985279,169.236008
421,0,4.895459,179.344635,163.402328,110.467705,96.981377,198.854752,154.805298,61.839214,192.699417,182.250381,35.987320,170.939194
422,0,12.697690,180.583527,167.070206,120.012833,99.265221,201.106354,165.324432,65.679710,194.397339,193.517792,41.032448,172.276550
423,0,20.494308,181.868286,170.314056,129.106369,101.626213,202.998749,175.440399,69.395226,195.870560,204.313171,45.837399,173.480469
424,0,28.397469,183.270065,173.276031,138.158783,104.104866,204.716187,185.223175,72.911903,197.279617,214.463165,50.314022,174.523804
425,0,36.458012,184.728119,175.775864,147.177231,106.748062,206.257019,194.675781,76.235329,198.476273,224.406815,54.375492,175.540451
426,0,44.558510,186.360001,177.906570,156.018890,109.507828,207.486755,203.841888,79.516808,199.562195,233.714172,58.006088,176.473694
427,0,52.806286,188.242737,179.687119,164.881561,112.337173,208.471039,212.615372,82.753166,200.452942,243.034851,61.597408,177.271759
428,0,60.710297,189.743073,181.392975,173.660645,115.174072,209.152695,221.825897,85.936897,200.912064,252.072937,64.945374,177.662125
429,0,68.621674,191.571976,182.840134,182.373779,117.998192,209.415176,230.633545,89.102844,200.890289,260.936951,68.408096,177.513672
430,0,76.283836,193.302475,184.010910,191.053940,120.709641,209.363266,239.420380,92.303062,200.460663,269.800720,71.830063,176.977692
431,0,83.760590,194.910233,185.101974,199.583496,123.291176,208.925110,248.114929,95.443733,199.604034,278.480408,75.270897,175.963654
432,0,90.936440,196.416946,185.895889,207.858444,125.739159,208.219238,256.632751,98.554298,198.341492,286.982117,78.761833,174.446487
433,0,97.803986,197.646988,186.373367,215.860672,127.985176,207.053543,264.854156,101.497559,196.762619,295.200928,82.022110,172.668335
434,0,104.585487,198.750854,186.523956,223.727936,130.015137,205.676895,272.781555,104.249672,194.961548,303.263428,85.265808,170.617523
435,0,110.995819,199.732437,186.418976,231.073196,131.916473,204.045425,280.420715,106.864891,192.910873,311.001129,88.391579,168.418991
436,0,117.264717,200.594284,186.032303,238.073776,133.702301,202.096039,287.668549,109.281502,190.591766,318.263031,91.058228,165.952484
437,0,123.245773,201.349319,185.568817,244.917862,135.355637,200.024963,294.557556,111.377487,188.078598,325.321777,93.669823,163.104874
438,0,129.099548,201.913010,184.654953,251.442078,136.739227,197.679581,301.153564,113.330009,185.293671,331.852234,96.028084,160.140259
439,0,134.507492,202.461594,183.763123,257.542847,137.914963,195.309189,307.348022,115.099640,182.301315,338.086578,98.355522,156.888992
440,0,139.529037,202.959183,182.707657,263.258789,138.891602,192.770905,313.213043,116.737381,179.236893,343.896942,100.487518,153.562088
441,0,144.362381,203.423141,181.553558,268.604218,139.713837,190.126526,318.718842,118.189201,176.185043,349.529449,102.470413,150.270172
442,0,148.937241,203.897278,180.199509,273.684174,140.523895,187.510071,323.842010,119.318077,173.132980,354.377777,103.700546,146.997299
443,0,153.250092,204.450958,178.859772,278.360901,141.177444,184.800980,328.434906,120.172249,170.171036,358.978760,104.569214,143.987549
444,0,157.710464,204.953751,177.206161,282.894318,141.870605,182.213104,332.718079,120.749153,167.210785,363.092621,105.048569,141.010422
445,0,161.682526,205.485214,175.659836,287.171875,142.456909,179.617874,336.678253,121.137421,164.245529,366.809479,105.127899,138.022507
446,0,165.579697,206.052567,173.956406,291.284302,143.011230,176.992767,340.564789,121.485985,161.397247,370.415344,105.281433,135.029770
447,0,169.504990,206.567047,172.150345,295.204620,143.534424,174.294464,344.269287,121.861710,158.421875,373.931244,105.423172,132.043671
448,0,173.216187,207.057281,170.270615,299.006805,144.070053,171.468552,347.822510,122.308609,155.402542,377.379028,105.683159,129.056900
449,0,176.629395,207.439453,168.450226,302.733429,144.560120,168.570435,351.396118,122.858330,152.261337,380.839630,106.172775,125.913757
450,0,179.903336,207.692139,166.620804,306.310181,145.016953,165.584244,354.779541,123.457016,148.957870,384.225098,106.823166,122.639404
451,0,182.921341,207.887512,164.796326,309.635590,145.367706,162.523804,358.080719,124.113731,145.600845,387.619263,107.649132,119.201729
452,0,185.828262,208.017029,163.008759,312.924042,145.766907,159.525208,361.336365,124.825081,142.175812,390.692352,108.512466,115.741928
453,0,188.625122,208.161819,161.155594,315.979950,146.135406,156.538971,364.355988,125.547531,138.851410,393.702118,109.402641,112.311874
454,0,191.294678,208.298096,159.334946,318.919952,146.572189,153.562500,367.306641,126.318665,135.594376,396.600098,110.319786,109.058784
455,0,193.755264,208.527237,157.351913,321.664917,147.035004,150.666321,370.014435,127.082077,132.502045,399.494690,111.355873,105.927467
456,0,196.219467,208.773529,155.411438,324.202545,147.529922,147.809464,372.615997,127.865257,129.453094,401.887939,112.065956,102.796455
457,0,198.464584,209.167664,153.409775,326.639130,147.966812,144.940765,375.018127,128.550797,126.335472,404.376831,112.937149,99.643311
458,0,200.791214,209.585251,151.492783,328.917694,148.424988,142.033127,377.292450,129.241760,123.267433,406.530518,113.526749,96.583511
459,0,203.004990,209.998871,149.555298,331.150391,148.916046,139.196915,379.384277,129.833893,120.120911,408.443420,114.026665,93.332169
460,0,204.961914,210.386536,147.564407,333.243439,149.421631,136.318619,381.325500,130.442627,116.924400,410.308899,114.713318,90.080193
461,0,206.699112,210.907150,145.740829,335.094940,150.026764,133.470871,382.990875,131.122223,113.784081,412.074036,115.557999,86.827042
462,0,208.372269,211.513275,143.926147,336.737427,150.615372,130.647110,384.560394,131.888702,110.663902,413.452728,116.230232,83.684723
463,0,209.670990,212.162277,142.027817,338.087250,151.254333,128.173431,385.873779,132.606262,107.805634,414.393127,116.599564,80.548813
464,0,210.864563,212.829361,140.021820,339.091797,151.602020,125.807671,386.920197,133.007889,105.122025,415.150940,116.863480,77.676384
465,0,211.921112,213.306442,138.067093,339.918518,151.738525,123.638725,387.565613,133.086258,102.852715,415.888306,116.981529,75.344742
466,0,212.630951,213.665283,136.035751,340.265778,151.749527,121.530266,387.890533,133.223419,101.657730,416.986450,117.016808,74.401413
467,0,213.158798,214.014648,133.949753,340.384766,151.817001,119.717308,388.096008,133.555359,101.020218,417.768982,117.139191,73.723274
468,0,213.482971,214.402802,131.949890,340.213196,151.908646,118.041092,388.211823,133.852768,100.260193,418.665344,117.389359,72.847580
469,0,213.679764,214.846664,130.058151,339.990234,152.007858,116.607811,388.228577,134.183578,99.760986,419.001007,117.456444,72.359711
470,0,213.857208,215.385132,128.461182,339.662811,152.296173,115.472366,388.125183,134.563477,99.543556,419.290192,117.654938,71.845215
471,0,213.850784,216.113190,127.062035,339.384552,152.766357,114.855766,387.976624,134.970078,99.598587,419.375854,117.913864,71.528267
472,0,213.736771,217.005478,125.813034,338.946259,153.262436,114.640862,387.727386,135.218002,99.780861,419.063019,117.835060,71.546242
473,0,213.765503,217.829224,124.885757,338.674713,153.725876,114.534576,387.436432,135.292297,99.843506,418.792297,117.641296,71.645653
474,0,213.745255,218.636963,124.071884,338.541168,154.186646,114.537743,387.207855,135.299530,99.811295,418.517120,117.361732,71.790222
475,0,213.896088,219.407257,123.427086,338.558868,154.687820,114.637215,387.095032,135.400589,99.809822,418.240753,117.082115,71.921692
476,0,214.161636,220.049683,122.977303,338.596191,155.112045,114.838150,387.096252,135.502823,99.837982,418.118225,116.974350,72.025726
477,0,214.414856,220.559097,122.615471,338.614655,155.372437,115.167824,387.141479,135.603577,99.858124,418.160187,117.068115,72.061272
478,0,214.616043,220.844345,122.449409,338.650024,155.488251,115.509483,387.226349,135.606308,99.902626,418.158051,117.083542,72.133881
479,0,214.758575,220.973495,122.408119,338.729095,155.496475,115.957947,387.320770,135.490402,99.979233,418.237366,117.221977,72.258698
480,0,214.881760,220.960419,122.565331,338.773834,155.454132,116.492157,387.465820,135.505142,100.160316,418.467651,117.490829,72.435272
481,0,214.995300,220.868591,122.861534,338.839783,155.396820,117.051170,387.741943,135.533463,100.400414,418.702698,117.862297,72.572685
482,0,215.158173,220.768646,123.265846,338.928345,155.343414,117.684311,387.893311,135.597168,100.714211,418.713104,118.076485,72.804230
483,0,215.187225,220.759033,123.798569,338.964325,155.383392,118.457764,387.973328,135.662338,101.230225,418.818787,118.516068,73.224907
484,0,215.173203,220.849792,124.413483,338.849609,155.511200,119.375412,387.875092,135.828384,101.951294,418.721069,118.686790,73.947495
485,0,214.861328,221.043594,125.111656,338.563385,155.759293,120.459129,387.595520,136.002441,103.007645,418.535339,118.792320,75.017326
486,0,214.337723,221.401199,125.907448,338.089050,156.048187,121.789207,387.213135,136.298233,104.384964,417.904938,118.882019,76.488640
487,0,213.552246,221.741913,126.817856,337.301147,156.333603,123.367424,386.409088,136.543610,106.102531,417.410950,119.161087,78.426636
488,0,212.582367,222.023117,127.905769,336.074554,156.553757,125.200989,385.359894,136.685410,108.321106,416.514252,119.144417,80.770607
489,0,211.244385,222.294479,129.077240,334.617798,156.720581,127.273453,383.953979,136.682755,110.727371,415.026520,118.916275,83.376236
490,0,209.535019,222.619644,130.436859,332.887970,156.868668,129.510239,382.336945,136.772614,113.282738,413.608337,119.051605,85.972580
491,0,207.605850,222.912262,131.814331,330.807251,156.956406,131.860291,380.352844,136.794495,115.873306,411.628571,118.744736,88.830673
492,0,205.356384,223.218399,133.381042,328.532471,157.042648,134.322769,378.073608,136.696960,118.699196,409.517822,118.625740,91.746391
493,0,202.861725,223.584625,134.943680,325.884796,157.034378,136.855469,375.477600,136.508087,121.586777,406.889801,118.102455,94.907104
494,0,200.075333,223.840408,136.571609,322.903503,157.002762,139.447083,372.568573,136.313904,124.544266,404.098145,117.771973,98.078094
495,0,197.058151,224.097977,138.182266,319.641418,156.892090,142.041519,369.469025,136.176147,127.582939,401.119629,117.622421,101.239906
496,0,193.694199,224.332504,139.758759,316.107971,156.843903,144.632477,365.995056,136.132034,130.569626,397.871124,117.436241,104.469490
497,0,189.975494,224.598969,141.323929,312.270477,156.764008,147.206955,362.299377,136.090622,133.565903,394.213806,117.158943,107.541389
498,0,186.010590,224.771301,142.775284,308.114655,156.593124,149.677322,358.243988,135.922058,136.393234,390.417114,117.118340,110.556648
499,0,181.857742,224.951675,144.252563,303.693604,156.384125,152.001755,353.944977,135.622147,139.059311,386.199402,116.828400,113.350288
500,0,177.318527,225.161636,145.548813,299.022675,156.085022,154.115784,349.262390,135.210831,141.485397,381.387878,116.008835,115.962311
501,0,172.686188,225.494019,146.775955,294.154327,155.826233,156.147095,344.346344,134.692612,143.798615,376.583771,115.474701,118.412941
502,0,167.852539,225.839294,147.887177,289.078217,155.616150,157.976257,339.220917,134.164276,145.872910,371.559784,114.877579,120.561127
503,0,162.913803,226.201691,148.774292,283.942749,155.501526,159.687958,333.885498,133.730255,147.621643,366.218292,114.309853,122.454620
504,0,157.696884,226.621964,149.605637,278.511597,155.542862,161.231339,328.565216,133.560303,149.249619,360.793640,113.899002,124.166008
505,0,152.377762,227.091110,150.152466,273.179016,155.608887,162.474213,323.171631,133.493500,150.580170,355.347260,113.673286,125.625534
506,0,147.125061,227.482529,150.430664,267.774597,155.662918,163.474823,317.748322,133.430084,151.706650,349.737457,113.270760,126.799927
507,0,141.755035,227.907333,150.661804,262.227905,155.603058,164.215591,312.226807,133.358231,152.589981,344.180206,112.975914,127.778900
508,0,136.379303,228.265976,150.651154,256.588501,155.407196,164.713226,306.554535,133.029190,153.210632,338.500000,112.503845,128.439362
509,0,131.124802,228.640182,150.446060,251.042358,155.202332,164.917343,300.859406,132.645584,153.501694,332.899384,112.074905,128.844574
510,0,125.615555,228.986237,150.235382,245.431915,154.993942,164.873047,295.034821,132.093246,153.390503,326.810913,111.248947,128.702911
511,0,120.495110,229.128815,149.574524,239.833740,154.832520,164.638702,289.361084,131.647110,153.105270,320.945068,110.686050,128.301483
512,0,115.022987,229.574554,149.300262,234.465256,154.698868,164.204453,283.925842,131.191147,152.549835,315.233093,110.192795,127.562042
513,0,109.981026,229.775314,148.459518,229.113739,154.612900,163.608994,278.329407,131.002106,151.710938,309.680359,109.856850,126.565041
514,0,104.581635,230.152344,147.941956,223.917786,154.545975,162.852493,272.818024,130.904434,150.684647,304.124969,109.583702,125.356644
515,0,99.547173,230.362289,147.068832,218.815216,154.466370,161.885681,267.731354,130.645599,149.482971,299.005005,109.571701,124.014977
516,0,94.706184,230.574112,145.969696,213.760361,154.443573,160.836227,262.712860,130.467773,148.232086,293.679382,109.222198,122.589836
517,0,89.860062,230.784332,144.869843,208.834595,154.328293,159.536972,257.776611,130.316162,146.850098,288.636322,108.904678,121.118683
518,0,85.145042,230.981705,143.702835,204.111832,154.240189,158.177170,252.871933,130.152313,145.387650,283.755402,108.639565,119.618515
519,0,80.516914,231.156082,142.559814,199.436722,154.142136,156.659683,248.152359,129.963287,143.806686,278.630402,108.388618,118.070282
520,0,76.188080,231.263031,141.343872,195.106842,154.036682,155.221054,243.749237,129.849304,142.077728,274.173157,108.293549,116.202087
521,0,71.998756,231.257446,140.020615,190.852295,153.914291,153.649094,239.571976,129.770447,140.357162,269.845764,108.264244,114.290466
522,0,67.903915,231.191956,138.817154,186.840027,153.753616,152.062180,235.469803,129.689468,138.494888,265.695068,108.198181,112.307991
523,0,63.962860,231.180695,137.607498,182.941956,153.572159,150.453064,231.512222,129.507004,136.612259,261.656372,108.140526,110.298752
524,0,60.155910,231.038208,136.312225,179.091888,153.316162,148.784775,227.592697,129.288986,134.755630,257.812500,108.050896,108.248604
525,0,56.431168,230.862305,135.079254,175.331741,152.978043,147.067749,223.745239,128.898987,132.768311,253.744217,107.609535,106.164268
526,0,52.865135,230.791763,133.883194,171.713852,152.569672,145.355362,220.051102,128.380005,130.921188,249.816818,107.079750,104.116142
527,0,49.503895,230.670120,132.697632,168.157516,152.182953,143.664352,216.434036,127.827438,128.971771,246.055405,106.509041,102.071899
528,0,46.320572,230.489868,131.668976,164.842941,151.879181,142.060410,212.951736,127.330482,127.089279,242.466736,106.022606,100.075432
529,0,43.335606,230.512894,130.493973,161.755920,151.731003,140.469437,209.634644,126.962540,125.286636,239.006821,105.527969,98.143410
530,0,40.525566,230.528580,129.314438,158.852676,151.764008,138.926254,206.613586,126.836670,123.541351,235.822708,105.345543,96.316635
531,0,37.733112,230.626205,128.116898,156.047607,151.881729,137.413193,203.863815,126.966942,121.910347,233.010208,105.390419,94.645645
532,0,35.161263,230.737732,126.846237,153.544662,152.164078,136.002792,201.305588,127.264008,120.364120,230.336380,105.614388,93.006790
533,0,32.589790,230.859314,125.685471,151.170547,152.405472,134.527588,198.919312,127.594902,118.784065,227.880295,105.938889,91.375130
534,0,30.299063,231.070724,124.594269,148.850311,152.585449,133.119751,196.652725,127.821236,117.230179,225.464508,106.085220,89.727402
535,0,28.059971,231.121124,123.577065,146.767563,152.722534,131.736496,194.446655,127.953781,115.659157,223.316101,106.331573,88.085693
536,0,26.012161,231.187439,122.674683,144.710541,152.780975,130.364120,192.337387,128.017899,114.040215,221.161179,106.409866,86.343170
537,0,23.957125,231.269928,121.895767,142.817642,152.860062,129.046768,190.384842,128.129623,112.569000,219.020142,106.555626,84.749039
538,0,22.196636,231.213287,121.045021,141.050186,153.018753,127.809746,188.600388,128.364258,111.127907,217.204056,106.911446,83.115959
539,0,20.390190,231.291428,120.370857,139.330978,153.194855,126.568153,186.965317,128.713211,109.723038,215.467819,107.364807,81.622681
540,0,18.694075,231.316177,119.608498,137.846359,153.410919,125.460136,185.487442,129.136292,108.420914,214.064194,107.911270,80.224831
541,0,17.046133,231.383041,118.902832,136.425583,153.694717,124.331100,184.101181,129.562592,107.183441,212.669449,108.461029,78.850189
542,0,15.534767,231.743896,118.253288,135.068237,153.941284,123.289673,182.721817,129.970642,105.949509,211.242081,109.062622,77.614532
543,0,14.069230,231.948868,117.673645,133.729416,154.285782,122.313148,181.413803,130.398941,104.870819,209.973969,109.571815,76.325737
544,0,12.688357,232.193390,117.182182,132.467773,154.689758,121.423477,180.151260,130.918381,103.761604,208.586090,110.151436,75.147499
545,0,11.470814,232.512482,116.737518,131.306015,155.218750,120.668282,179.007248,131.537079,102.841667,207.468414,111.051010,74.014595
546,0,10.170003,232.974777,116.338966,130.179291,155.888870,119.989716,177.858597,132.398209,101.957298,206.401123,111.995392,73.007668
547,0,8.869465,233.429428,115.892609,129.144562,156.671997,119.275429,176.854675,133.430206,101.131599,205.367035,113.142059,72.126793
548,0,7.685665,233.975891,115.446831,128.212204,157.669052,118.705429,175.996460,134.528809,100.446449,204.271362,114.209877,71.294075
549,0,6.497024,234.695038,115.064049,127.199127,158.616913,118.067207,175.128677,135.663284,99.726418,203.329285,115.360123,70.419861
550,0,5.373899,235.445648,114.682961,126.274612,159.545578,117.418976,174.198135,136.714676,98.970116,202.388184,116.519547,69.532318
551,0,4.408089,236.108521,114.213066,125.445885,160.441040,116.687874,173.336517,137.736359,98.061790,201.531616,117.641838,68.563499
552,0,3.320387,236.780960,113.744148,124.626640,161.331619,115.948280,172.419159,138.740692,97.064316,200.494461,118.627045,67.464355
553,0,2.238633,237.431122,113.325195,123.783546,162.202103,115.123970,171.633545,139.728668,96.006561,199.541214,119.652924,66.301483
554,0,1.256691,238.103897,112.898254,122.817787,162.991364,114.399010,170.722748,140.651001,95.138481,198.416611,120.599876,65.190636
555,0,0.078403,238.726440,112.611641,121.826630,163.706284,113.740318,169.668533,141.424088,94.288727,197.470032,121.525414,64.192253
556,0,-1.037346,239.313446,112.224045,120.769867,164.399292,113.189720,168.569138,142.255402,93.565437,196.317703,122.419106,63.330666
557,0,-2.182146,239.933517,111.848602,119.642487,165.109116,112.681839,167.629074,143.041061,92.993912,195.194595,123.274727,62.596024
558,0,-3.254116,240.571945,111.512611,118.682426,165.822876,112.236855,166.567413,143.782364,92.433311,194.319809,124.192413,62.088963
559,0,-4.309453,241.355179,111.107666,117.869972,166.684189,111.894211,165.689545,144.753052,92.093842,193.195877,124.686043,61.904510
560,0,-5.175099,242.187927,110.715950,116.917290,167.401642,111.667397,164.754623,145.218018,91.993462,192.003342,124.783005,61.756042
561,0,-5.983197,243.035263,110.399986,115.961540,167.899216,111.409317,163.662598,145.459167,92.048058,191.047668,124.615097,62.226482
562,0,-6.684185,243.573822,109.962921,114.962158,168.283920,111.228073,162.588043,145.511917,92.410820,190.059296,124.145966,62.970856
563,0,-7.304866,243.973999,109.562363,114.091415,168.449982,111.136932,161.582321,145.372070,92.842461,189.231384,123.847153,63.778797
564,0,-8.117652,244.277710,109.274750,113.318214,168.601776,111.201591,160.834976,145.479538,93.361755,188.742935,123.857880,64.528038
565,0,-8.790835,244.234650,109.180794,112.624969,168.675171,111.262726,160.404495,145.701309,93.690254,188.413055,124.007088,65.042091
566,0,-9.039706,243.875153,109.240578,112.190781,168.693863,111.306381,160.017441,145.774567,93.874283,188.115707,124.052574,65.419365
567,0,-9.431415,243.822754,109.167648,111.860718,168.661560,111.260086,159.671539,145.730484,93.992149,187.929504,124.048912,65.651550
568,0,-9.617595,243.756332,109.089027,111.744026,168.616013,111.225624,159.562347,145.729477,93.988533,187.839066,124.087860,65.691925
569,0,-9.653295,243.636597,109.029655,111.717064,168.596680,111.095146,159.588043,145.756592,93.836494,187.869171,124.110939,65.563248
570,0,-9.618682,243.580688,108.917213,111.875092,168.618073,110.852654,159.719940,145.848450,93.590820,187.951004,124.185257,65.287903
571,0,-9.522049,243.509323,108.794098,112.164078,168.676071,110.557549,159.932495,145.944366,93.196869,188.119507,124.313354,64.903931
572,0,-9.341640,243.521896,108.600586,112.504013,168.788376,110.148979,160.293304,146.124039,92.722389,188.351746,124.467789,64.439835
573,0,-9.041924,243.500259,108.400215,112.962776,168.964478,109.753227,160.655273,146.386185,92.160088,188.591064,124.682007,63.941402
574,0,-8.826005,243.534225,108.212013,113.378662,169.150818,109.299072,161.052124,146.719574,91.461975,188.951767,125.000473,63.314304
575,0,-8.543433,243.554779,108.047668,113.912186,169.398499,108.889259,161.597412,147.092300,90.814865,189.343521,125.377686,62.740021
576,0,-8.294240,243.583694,107.837387,114.352058,169.606552,108.353920,162.049728,147.418884,90.091499,189.780273,125.719589,62.120308
577,0,-8.076321,243.584427,107.639656,114.726219,169.738876,107.927948,162.417053,147.696625,89.551834,190.098984,125.942856,61.655407
578,0,-7.960019,243.636124,107.496452,114.763466,169.886536,107.858513,162.482010,147.856552,89.649864,190.005936,125.803467,61.765156
579,0,-8.015632,243.799591,107.314423,114.754951,170.067917,107.987183,162.323212,147.666794,89.740799,189.907562,125.899033,61.973534
580,0,-8.242413,243.725479,107.347183,114.602638,170.017456,108.012131,162.249863,147.796753,89.729591,189.832031,125.996605,62.146107
581,0,-8.468002,243.526535,107.428711,114.488892,169.825775,108.086769,162.156006,147.785110,89.719009,189.610962,126.057732,62.297241
582,0,-8.697083,243.330078,107.560593,114.373657,169.628769,108.291962,161.998795,147.535538,89.782883,189.463776,126.067627,62.551781
583,0,-8.888083,242.975479,107.753181,114.253883,169.356766,108.527733,161.846466,147.320999,89.789703,189.405502,125.880676,62.807762
584,0,-9.208964,242.580444,108.043625,114.138512,168.992371,108.828545,161.653610,146.977249,89.852905,189.376419,126.007584,63.082420
585,0,-9.495909,242.159180,108.482719,114.080093,168.629333,109.227867,161.532745,146.754654,89.911896,189.276001,126.125725,63.403606
586,0,-9.790236,241.687332,108.961571,113.998573,168.319748,109.681976,161.361130,146.573700,89.965508,189.174377,126.234337,63.761311
587,0,-10.160155,241.228775,109.514885,113.931335,168.018982,110.233040,161.282898,146.386749,90.078941,188.890900,126.238525,64.157135
588,0,-10.575624,240.634369,110.064003,113.860291,167.701492,110.803627,161.272263,146.254593,90.229767,188.714035,126.453667,64.509872
589,0,-11.123327,239.924377,110.791527,113.564003,167.242920,111.511406,161.053238,146.103287,90.429016,188.492828,126.683411,64.947456
590,0,-11.819999,239.039429,111.450882,113.224594,166.669266,112.262863,160.679535,145.843613,90.815331,188.158646,126.870125,65.406960
591,0,-12.842511,238.038574,112.347519,112.710449,165.933090,113.211456,160.246094,145.440384,91.454857,187.887787,127.203552,66.104881
592,0,-13.912059,236.841095,113.174957,111.994240,165.101639,114.355919,159.742035,145.020447,92.289963,187.530197,127.551498,66.862267
593,0,-15.037983,235.444397,114.121292,111.145088,164.160904,115.674553,159.081924,144.511383,93.277939,186.844086,127.370728,67.884880
594,0,-16.185356,233.971115,114.741058,110.118584,163.142609,117.088158,158.192673,143.801071,94.628098,186.039108,127.259178,69.243576
595,0,-17.647730,232.828491,115.471519,108.834953,162.093811,118.800255,157.112259,142.877670,96.388824,184.992874,126.235603,71.214485
596,0,-19.095112,231.703735,116.277557,107.241035,161.035172,120.623703,155.701782,141.656647,98.594917,183.679398,124.833649,73.677223
597,0,-20.653358,230.576340,116.957260,105.394577,159.816513,122.652611,154.003906,140.007858,101.132515,182.211029,123.113930,76.636009
598,0,-22.398657,229.371277,117.787308,103.279732,158.426956,124.744392,151.990997,138.068130,103.833336,180.240265,120.573410,79.855484
599,0,-24.329351,228.190735,118.593353,101.039719,156.819168,126.922134,149.686218,135.874786,106.762238,178.267334,118.241791,83.142555
600,0,-26.403820,226.821945,119.378685,98.689903,154.959213,129.174744,147.196014,133.548859,109.640999,175.709213,115.285759,86.517036
601,0,-28.633043,225.358185,120.136879,96.109306,153.013870,131.383591,144.563416,130.949173,112.799194,173.022522,112.310204,89.887413
602,0,-31.031271,223.875534,120.865555,93.053589,150.909256,133.807037,141.707840,128.252029,115.818489,170.154694,109.117477,93.187370
603,0,-33.450188,222.494507,121.325989,89.804977,148.696625,136.113022,138.447433,125.320763,118.738968,167.043304,105.798721,96.617302
604,0,-36.080639,220.405777,121.926399,86.867531,146.510910,138.273529,135.078064,122.294769,121.793846,163.577728,102.207939,99.996391
605,0,-38.713306,218.591202,122.270844,83.234772,144.127731,140.576157,131.482803,119.115654,124.721306,159.860168,98.524765,103.260185
606,0,-41.459755,216.694809,122.533585,79.727287,141.630783,142.613602,127.706871,115.758888,127.477081,156.007721,94.661980,106.392769
607,0,-44.196049,214.822052,122.704086,76.032761,138.971603,144.450287,123.801018,112.419281,129.947342,151.993790,90.643539,109.241646
608,0,-46.883972,212.811859,122.665848,72.327072,136.145401,146.070007,119.792030,108.615051,132.203720,147.922134,86.634010,111.676071
609,0,-49.747665,210.441971,122.615623,68.587456,133.145187,147.445374,115.706871,104.825012,134.095245,143.581924,82.196632,113.853172
610,0,-52.487133,207.939087,122.182312,64.762337,129.913742,148.483261,111.556496,100.845726,135.575485,139.175659,77.779839,115.498779
611,0,-55.524925,205.232483,122.009071,60.867634,126.513573,149.196762,107.332222,96.716164,136.649017,134.681030,73.200348,116.759636
612,0,-58.439285,202.874680,121.778694,56.850574,122.910332,149.604355,102.991150,92.468636,137.264603,130.155121,68.532547,117.630157
613,0,-61.493473,200.215805,121.241348,52.794079,119.207474,149.733826,98.470848,88.037148,137.614456,125.295815,63.720211,117.990990
614,0,-64.480850,198.371841,120.780914,48.786934,115.500374,149.657318,93.840775,83.520302,137.555923,120.416595,58.846870,117.974480
615,0,-67.486320,196.155228,120.065483,44.692501,111.763016,149.507919,89.288261,79.052170,137.327316,115.171227,53.890556,117.616905
616,0,-70.473061,192.779465,119.163933,40.673355,108.158630,149.169098,84.637489,74.592262,136.930847,110.266693,48.930435,117.146942
617,0,-73.443306,190.325760,118.187164,36.675510,104.676628,148.678055,80.021408,70.215744,136.371811,104.909515,44.090233,116.380486
618,0,-76.482903,187.723145,117.141373,32.891758,101.308662,147.999771,75.554558,66.024429,135.690720,100.027267,39.446632,115.735115
619,0,-79.511505,185.583527,115.942703,29.097851,98.021706,147.124176,71.215080,62.023312,134.898193,95.139450,35.019695,114.829666
620,0,-82.136955,182.656830,114.301987,25.447407,94.783745,146.058594,67.093834,58.181362,133.926392,90.706200,30.858704,113.820847
621,0,-84.904961,180.505356,112.629654,21.856506,91.509354,144.756165,63.008636,54.457893,132.648056,86.485466,26.866817,112.583115
622,0,-87.791962,178.194992,111.310310,18.398321,88.200005,143.243149,59.310589,50.824387,131.138245,82.588486,23.065775,111.027664
623,0,-90.567749,175.601730,109.886963,15.090354,84.871376,141.540421,55.864109,47.223595,129.339188,78.739258,19.297272,109.183762
624,0,-93.057770,173.371048,108.453690,11.988292,81.551308,139.721344,52.420963,43.666687,127.329811,75.115265,15.580805,107.100662
625,0,-95.635872,170.754288,107.076324,8.937569,78.281471,137.833740,48.980633,40.065365,125.148788,71.462975,11.871158,104.874756
626,0,-97.919548,168.384995,105.498077,5.946333,75.125511,135.915665,45.725327,36.598171,122.942764,67.736343,8.409037,102.259865
627,0,-100.469116,166.463516,103.968842,3.104195,72.152107,133.997284,42.523724,33.271603,120.661308,63.900925,4.977877,99.672241
628,0,-102.530823,164.014221,102.218521,0.574264,69.472939,132.089996,39.509644,30.097679,118.433075,60.545559,1.722018,97.083664
629,0,-104.231369,161.656982,100.533684,-1.809993,66.956528,130.176331,36.494778,27.197910,116.033707,57.275883,-1.358699,94.528496
630,0,-106.156403,159.518433,98.747253,-4.203098,64.286377,128.008484,33.921593,24.450830,113.688408,54.401493,-4.176014,91.954651
631,0,-107.890450,157.325317,97.137115,-6.381009,61.852512,125.895966,31.558474,21.869560,111.299843,51.718548,-6.804520,89.276794
632,0,-109.585083,155.287460,95.270950,-8.325272,59.549026,123.784737,29.316256,19.427288,108.787193,49.313290,-9.163829,86.537560
633,0,-111.517853,154.042587,93.675415,-10.076775,57.239193,121.568054,27.388943,17.161884,106.240440,47.123913,-11.435118,83.749245
634,0,-112.854614,152.296005,91.858421,-11.654986,55.226643,119.235931,25.459560,15.049929,103.509583,44.969082,-13.627145,80.871635
635,0,-114.329880,150.589417,90.394821,-13.047655,53.325134,116.907578,23.743305,13.064630,100.734596,43.049923,-15.595733,77.883141
636,0,-115.735413,149.195435,88.750763,-14.193426,51.772415,114.503342,22.202652,11.292628,98.024872,41.143917,-17.335899,74.907837
637,0,-116.824326,147.888138,87.065186,-15.471131,50.784424,111.955360,20.853590,10.014444,95.172714,39.611546,-18.644432,71.938683
638,0,-118.128334,146.564789,85.645370,-16.410885,49.791775,109.784882,19.854120,9.050706,92.507751,38.580639,-19.386011,69.057472
639,0,-119.403267,145.567627,84.059334,-17.313623,49.055744,107.811531,19.148796,8.517419,90.131363,37.772907,-19.706526,66.345009
640,0,-120.537918,144.570175,82.500626,-18.071291,48.591965,105.999229,18.601820,8.344065,87.973824,37.250523,-19.700893,63.995907
641,0,-121.656052,143.730011,80.910736,-18.946451,48.284988,104.224777,18.156855,8.325950,86.143883,36.795605,-19.533390,61.992111
642,0,-122.867432,143.121780,79.307587,-19.824451,48.136555,102.625397,17.505735,8.403400,84.396919,36.222916,-19.361626,60.188622
643,0,-123.957222,142.619385,77.820908,-20.648376,48.090298,101.064026,16.937742,8.431906,82.884666,35.612301,-19.232620,58.529697
644,0,-124.783600,142.145065,76.270210,-21.424200,48.023304,99.539444,16.204086,8.388581,81.306572,34.739586,-19.319494,56.945446
645,0,-125.760796,141.785446,74.825378,-22.303337,47.912254,97.919281,15.358042,8.117436,79.801132,33.717731,-19.556360,55.330158
646,0,-126.723305,141.409088,73.491829,-23.198977,47.716080,96.294258,14.388415,7.777227,78.195572,32.596554,-19.985052,53.618233
647,0,-127.601654,141.064651,72.327560,-24.085140,47.418957,94.592072,13.481618,7.269303,76.517509,31.466484,-20.432409,51.768524
648,0,-128.420761,140.691925,71.090363,-25.019606,46.969482,92.831909,12.349382,6.847974,74.583450,30.303598,-20.989565,49.729259
649,0,-129.467331,140.315567,70.057426,-26.134501,46.458004,90.928925,11.187078,6.376510,72.402245,29.100243,-21.516403,47.414158
650,0,-130.383682,140.045898,68.985756,-27.184326,45.865437,89.004585,9.648742,6.195707,69.945877,27.917082,-22.061152,45.028099
651,0,-131.467545,139.840195,67.866760,-28.394386,45.502289,86.961266,8.606981,5.736983,67.618484,26.582077,-22.388977,42.384972
652,0,-132.313141,139.619583,66.788269,-29.359970,44.974155,84.937798,7.361649,5.336946,65.137115,25.333689,-22.695633,39.713486
653,0,-133.159897,139.500595,65.591927,-30.189857,44.593197,82.832039,6.314842,4.983731,62.652573,24.120197,-22.842451,37.067348
654,0,-134.056534,139.424774,64.433098,-31.002373,44.438148,80.557907,5.418086,4.855225,60.128246,23.055481,-22.892406,34.273640
655,0,-134.615448,139.555450,63.040970,-31.602898,44.314793,78.190567,4.590555,4.785042,57.425735,22.078615,-22.674681,31.839590
656,0,-135.188187,139.611023,61.550632,-32.306046,44.404045,75.746613,3.768815,5.216048,56.587971,22.079647,-23.033695,31.863745
657,0,-135.671082,139.801285,60.071884,-33.054749,44.743614,73.221313,3.246988,5.655016,55.344208,22.134521,-22.927996,31.626024
658,0,-136.075668,140.038986,58.504139,-33.637123,45.141098,70.738144,2.856809,6.431561,54.142639,22.182575,-22.824984,31.441465
659,0,-136.401978,140.329681,56.822525,-34.226505,45.618835,68.285385,2.398584,7.199224,53.162281,22.220007,-22.543627,31.391903
660,0,-136.622192,140.628662,55.256901,-34.673653,46.274727,65.904617,1.955880,7.944979,52.103439,22.208422,-22.148552,31.280272
661,0,-136.888916,140.924347,53.654346,-35.182018,46.780613,63.728584,1.478397,8.714948,51.138969,22.195127,-21.754404,31.257500
662,0,-137.275528,141.211670,52.220238,-35.903069,47.417923,61.815540,0.919192,9.500473,50.442081,21.933863,-21.393478,31.147009
663,0,-137.472046,141.429550,50.970459,-36.542294,48.079010,60.078453,0.363945,10.139514,49.712090,21.658924,-21.022310,31.055986
664,0,-137.839264,141.615952,49.826691,-37.208500,48.505192,58.739204,-0.218424,10.670515,49.006290,21.371901,-20.629553,30.914577
665,0,-138.287842,141.787598,48.759434,-37.907406,48.794910,57.666859,-0.886844,10.929269,48.498005,20.935570,-20.388088,30.766609
666,0,-138.572144,141.808914,47.991989,-38.660812,48.917053,56.797253,-1.605718,11.115622,48.117916,20.354364,-20.377062,30.620945
667,0,-138.835251,141.815308,47.307312,-39.348537,48.936073,56.083218,-2.196326,11.156682,47.759544,20.029911,-20.235088,30.568155
668,0,-139.010986,141.740616,46.712357,-39.919800,48.865902,55.591904,-2.640526,11.135433,47.553806,19.751717,-20.220699,30.449440
669,0,-139.080582,141.622864,46.249737,-40.405117,48.809025,55.203926,-2.990172,11.076080,47.451221,19.546394,-20.220869,30.405975
670,0,-139.151810,141.548508,45.818878,-40.805649,48.683189,54.940334,-3.248337,11.025033,47.409977,19.395012,-20.287251,30.359276
671,0,-139.076172,141.559525,45.404758,-41.116219,48.650242,54.712517,-3.440513,10.939539,47.380718,19.286032,-20.315250,30.297867
672,0,-138.898117,141.502731,45.079304,-41.231514,48.638660,54.585041,-3.547212,10.884133,47.411972,19.235874,-20.369425,30.267294
673,0,-138.660507,141.502197,44.814266,-41.301659,48.635685,54.509235,-3.528889,10.859330,47.451576,19.228003,-20.389227,30.243818
674,0,-138.436462,141.548447,44.653122,-41.306656,48.635426,54.447750,-3.533990,10.853535,47.469830,19.255627,-20.414576,30.249197
675,0,-138.200867,141.594376,44.569683,-41.307705,48.653175,54.427795,-3.518685,10.831044,47.513527,19.275770,-20.420500,30.254522
676,0,-138.016830,141.660355,44.518257,-41.279358,48.760681,54.468143,-3.478473,10.843928,47.581520,19.302219,-20.404034,30.271660
677,0,-137.865021,141.791672,44.504112,-41.169754,48.795719,54.472134,-3.441308,10.935825,47.566338,19.314514,-20.419546,30.295227
678,0,-137.656433,141.896988,44.524590,-41.049767,48.872150,54.499783,-3.349097,10.943965,47.610622,19.352581,-20.385496,30.307842
679,0,-137.501389,142.039551,44.548286,-41.009769,48.934547,54.493736,-3.320777,10.965000,47.625572,19.366213,-20.368391,30.307814
680,0,-137.390625,142.147324,44.553951,-40.966316,49.012978,54.498440,-3.323828,11.041716,47.625793,19.360588,-20.324213,30.304110
681,0,-137.269455,142.246368,44.507935,-40.950340,49.064415,54.407013,-3.304354,11.057537,47.619865,19.363476,-20.298443,30.309027
682,0,-137.145813,142.330505,44.429222,-40.970863,49.116020,54.371471,-3.321727,11.092366,47.576969,19.370066,-20.280376,30.314205
683,0,-137.032837,142.390945,44.322315,-41.011478,49.116928,54.251125,-3.300845,11.071914,47.586308,19.376402,-20.206696,30.279034
684,0,-136.990387,142.424622,44.192989,-41.140949,49.098587,54.117199,-3.382380,11.052573,47.544830,19.357361,-20.204865,30.266853
685,0,-136.995407,142.489532,44.065147,-41.270927,49.031208,53.947163,-3.481153,11.017675,47.488201,19.246149,-20.188875,30.213888
686,0,-137.007019,142.491440,43.962414,-41.474224,48.953903,53.774788,-3.697492,11.011961,47.431431,19.154505,-20.234776,30.209301
687,0,-137.032455,142.538086,43.912376,-41.675526,48.837265,53.572285,-4.000000,10.949806,47.296452,19.000938,-20.353580,30.191319
688,0,-137.107620,142.563507,43.853775,-41.919022,48.753914,53.413273,-4.243732,10.943406,47.204739,18.861794,-20.385086,30.177721
689,0,-137.129303,142.626465,43.822201,-42.116310,48.731735,53.231602,-4.398571,10.924568,47.123032,18.759365,-20.402010,30.157888
690,0,-137.148102,142.736023,43.766144,-42.220528,48.779610,53.053265,-4.463146,10.959396,47.076160,18.660265,-20.354736,30.122879
691,0,-137.137573,142.905151,43.688641,-42.263676,48.834011,52.873405,-4.534233,11.014489,47.012371,18.612411,-20.285866,30.107065
692,0,-137.075241,143.017792,43.586094,-42.289654,48.923763,52.717400,-4.600799,11.154139,46.956730,18.603863,-20.236687,30.097673
693,0,-136.989777,143.171661,43.537827,-42.292206,49.045204,52.602856,-4.490107,11.235164,46.917545,18.628450,-20.068031,30.065586
694,0,-136.813309,143.306534,43.521980,-42.242275,49.110687,52.504227,-4.464793,11.333567,46.897598,18.613485,-20.006212,30.039423
695,0,-136.780334,143.448624,43.530022,-42.203526,49.194603,52.441887,-4.462111,11.394598,46.861839,18.604433,-19.972811,30.033102
696,0,-136.713013,143.574722,43.635860,-42.120041,49.225330,52.456944,-4.482872,11.393842,46.811028,18.652821,-20.090435,30.060028
697,0,-136.621719,143.641220,43.772736,-42.011414,49.224686,52.553009,-4.353591,11.400774,46.933094,18.724489,-20.017511,30.053726
698,0,-136.557541,143.779602,43.962666,-41.900761,49.229328,52.675343,-4.272508,11.361397,47.037792,18.809687,-20.065983,30.127605
699,0,-136.419434,143.782639,44.186272,-41.686504,49.230042,52.911640,-4.139411,11.348993,47.155384,18.886383,-20.077347,30.167433
700,0,-136.314560,143.858810,44.408459,-41.438332,49.240211,53.137318,-3.935909,11.318876,47.296177,19.056938,-20.132956,30.216312
701,0,-136.190979,143.930115,44.636990,-41.207767,49.282642,53.380791,-3.716457,11.273279,47.460361,19.198635,-20.183504,30.226927
702,0,-136.011459,144.002960,44.854958,-40.974209,49.323807,53.638229,-3.467422,11.248021,47.617073,19.341871,-20.219942,30.300972
703,0,-135.827301,144.040054,45.061302,-40.731487,49.344101,53.841473,-3.226559,11.266576,47.737789,19.523350,-20.250467,30.356361
704,0,-135.645706,144.106033,45.218498,-40.490223,49.402637,54.058659,-3.083120,11.307517,47.815853,19.592625,-20.359161,30.388948
705,0,-135.490219,144.190521,45.341583,-40.285542,49.486710,54.248737,-2.918779,11.333002,47.931625,19.726557,-20.362738,30.420303
706,0,-135.392609,144.249847,45.424606,-40.086739,49.533966,54.362839,-2.723007,11.345257,48.003780,19.815907,-20.335989,30.445267
707,0,-135.275742,144.315430,45.498913,-39.918545,49.554249,54.443905,-2.619910,11.384078,48.074898,19.945593,-20.330992,30.480209
708,0,-135.209839,144.387543,45.550381,-39.835365,49.617195,54.478195,-2.529115,11.430891,48.110161,19.994526,-20.353464,30.505455
709,0,-135.172333,144.394623,45.537655,-39.758659,49.626366,54.450172,-2.498780,11.435772,48.098286,20.005249,-20.337002,30.490772
710,0,-135.161285,144.439117,45.472652,-39.741051,49.649780,54.381561,-2.477358,11.465067,48.079506,20.021307,-20.320065,30.497993
711,0,-135.146866,144.448486,45.442917,-39.798615,49.676674,54.257034,-2.494575,11.500362,48.029488,19.973633,-20.308598,30.476711
712,0,-135.137146,144.476364,45.351902,-39.847713,49.706505,54.139332,-2.584897,11.515732,47.976025,19.951590,-20.318573,30.443354
713,0,-135.168518,144.442169,45.227722,-39.953964,49.730839,54.000034,-2.663505,11.538012,47.948738,19.951864,-20.315117,30.447906
714,0,-135.141388,144.451645,45.056675,-40.062126,49.727257,53.835831,-2.716121,11.555928,47.902699,19.894619,-20.279362,30.409552
715,0,-135.268677,144.474167,44.896313,-40.160549,49.759609,53.643745,-2.789858,11.583540,47.842213,19.803370,-20.283161,30.374460
716,0,-135.282532,144.416687,44.712414,-40.263439,49.779346,53.489964,-2.817141,11.628620,47.848927,19.814308,-20.207592,30.357149
717,0,-135.297562,144.402130,44.552269,-40.341087,49.789028,53.310459,-2.886286,11.667932,47.780804,19.764906,-20.173958,30.362534
718,0,-135.350906,144.377274,44.349380,-40.431652,49.776657,53.159164,-2.971304,11.697294,47.736691,19.696770,-20.193140,30.333508
719,0,-135.401779,144.270874,44.207287,-40.505016,49.788597,53.003357,-3.023180,11.693596,47.655037,19.689478,-20.161474,30.323870
720,0,-135.445099,144.222488,44.043137,-40.581528,49.765472,52.912071,-3.097245,11.712642,47.631126,19.618683,-20.181810,30.296040
721,0,-135.523224,144.187668,43.911369,-40.647385,49.756863,52.851498,-3.178796,11.697824,47.594406,19.596254,-20.188097,30.317755
722,0,-135.574661,144.092499,43.828503,-40.736012,49.717026,52.785320,-3.228306,11.674298,47.574947,19.579115,-20.212067,30.325062
723,0,-135.646179,143.983002,43.686626,-40.803928,49.688671,52.720119,-3.255780,11.640762,47.537270,19.554522,-20.175661,30.348619
724,0,-135.736862,143.921860,43.603817,-40.883694,49.676842,52.632095,-3.306937,11.628345,47.493141,19.545691,-20.188295,30.328358
725,0,-135.843948,143.856766,43.501362,-40.910675,49.650715,52.606342,-3.344857,11.666477,47.485893,19.541134,-20.175804,30.323793
726,0,-135.891068,143.809296,43.443611,-40.990105,49.642483,52.572853,-3.382210,11.648633,47.503330,19.536306,-20.189407,30.337334
727,0,-135.974380,143.779205,43.383602,-41.008919,49.619526,52.527622,-3.374879,11.629888,47.490173,19.570496,-20.173176,30.361416
728,0,-136.030090,143.736725,43.305889,-41.052921,49.599461,52.500652,-3.409162,11.655275,47.447372,19.544558,-20.170473,30.359522
729,0,-136.117096,143.693192,43.241463,-41.074070,49.589741,52.401329,-3.427135,11.673909,47.431053,19.524010,-20.126873,30.342178
730,0,-136.169510,143.694672,43.127144,-41.130623,49.600151,52.375397,-3.445841,11.689792,47.383469,19.507324,-20.127550,30.331953
731,0,-136.255066,143.667557,43.048820,-41.183624,49.603336,52.307686,-3.509994,11.722702,47.353863,19.476662,-20.123173,30.326880
732,0,-136.273453,143.602264,42.948814,-41.282009,49.588696,52.255173,-3.544566,11.710806,47.322479,19.473093,-20.134924,30.339508
733,0,-136.325485,143.562561,42.846764,-41.321537,49.587852,52.198238,-3.568581,11.731387,47.275539,19.449575,-20.099840,30.298220
734,0,-136.354828,143.563904,42.695023,-41.361954,49.605450,52.085796,-3.590969,11.753345,47.278797,19.442173,-20.086842,30.282373
735,0,-136.350983,143.496185,42.567665,-41.438953,49.636135,51.999695,-3.632719,11.761869,47.207531,19.384747,-20.067947,30.262005
736,0,-136.445770,143.466675,42.417103,-41.470539,49.606606,51.921291,-3.672702,11.815299,47.197300,19.378941,-20.067413,30.253849
737,0,-136.400955,143.422073,42.244373,-41.553528,49.645504,51.846722,-3.739965,11.787905,47.163441,19.336140,-20.071854,30.244802
738,0,-136.443802,143.390335,42.143337,-41.586044,49.630459,51.765430,-3.770334,11.799871,47.148647,19.325174,-20.068466,30.253613
739,0,-136.471725,143.360321,42.032131,-41.621338,49.607197,51.712368,-3.794219,11.809329,47.131657,19.299574,-20.055815,30.238396
740,0,-136.491913,143.316055,41.922512,-41.633259,49.658588,51.643311,-3.802710,11.811023,47.088013,19.293320,-20.051851,30.247568
741,0,-136.497437,143.308487,41.810257,-41.668278,49.663181,51.608864,-3.818237,11.873393,47.059509,19.298138,-20.029322,30.201958
742,0,-136.467499,143.271255,41.696014,-41.677494,49.692345,51.558872,-3.804788,11.853187,47.048752,19.306730,-20.029566,30.220963
743,0,-136.470673,143.245026,41.597069,-41.672401,49.687313,51.523666,-3.797354,11.883102,47.019066,19.331087,-19.984842,30.223036
744,0,-136.486115,143.202713,41.462910,-41.672520,49.721272,51.473633,-3.788754,11.902206,47.020718,19.343010,-19.992546,30.209398
745,0,-136.465256,143.187286,41.342133,-41.675995,49.710655,51.468166,-3.792062,11.932399,47.000610,19.348019,-19.941200,30.214861
746,0,-136.463501,143.162994,41.256927,-41.675404,49.742695,51.441811,-3.762804,11.945881,47.004253,19.350475,-19.948488,30.221272
747,0,-136.489777,143.119949,41.151585,-41.691395,49.759792,51.426109,-3.779436,11.964912,47.010151,19.351587,-19.941946,30.215200
748,0,-136.477448,143.096375,41.064968,-41.741066,49.780174,51.400627,-3.802912,11.983336,47.008766,19.356403,-19.947512,30.215921
749,0,-136.478378,143.048325,40.949585,-41.764347,49.787571,51.401028,-3.808482,11.986271,47.007278,19.324564,-19.894094,30.205540
750,0,-136.483047,143.021683,40.847919,-41.792374,49.769772,51.383286,-3.829643,11.985101,46.977974,19.308172,-19.888182,30.181364
751,0,-136.527451,143.005157,40.791859,-41.812790,49.745132,51.365395,-3.826276,11.975276,46.967861,19.305040,-19.890390,30.182669
752,0,-136.589188,143.008362,40.705849,-41.857357,49.740616,51.381432,-3.866185,11.949269,46.964973,19.269781,-19.900166,30.179577
753,0,-136.615479,143.013580,40.671082,-41.875416,49.720551,51.394020,-3.916104,11.953938,46.960342,19.240181,-19.907084,30.180328
754,0,-136.647293,143.015106,40.596970,-41.876122,49.734482,51.377213,-3.895684,11.952395,46.961197,19.235514,-19.918344,30.165779
755,0,-136.634186,142.989304,40.524399,-41.891136,49.761002,51.399017,-3.909115,11.949888,46.961185,19.225355,-19.902308,30.162388
756,0,-136.649429,143.016495,40.480480,-41.888172,49.792717,51.383801,-3.896343,11.974273,46.966290,19.226124,-19.875565,30.174566
757,0,-136.621185,143.013901,40.379623,-41.882145,49.827389,51.381603,-3.878424,12.007390,46.967762,19.209446,-19.884453,30.159069
758,0,-136.629288,143.003418,40.333794,-41.886261,49.852844,51.350597,-3.854613,12.025891,46.940598,19.225830,-19.838951,30.180874
759,0,-136.660751,143.028366,40.254131,-41.871483,49.874847,51.325493,-3.858990,12.020193,46.946377,19.245970,-19.823570,30.164400
760,0,-136.632782,142.993484,40.225330,-41.896740,49.874863,51.329948,-3.869138,12.032351,46.953781,19.230825,-19.839628,30.142412
761,0,-136.626755,142.957962,40.202461,-41.916340,49.861275,51.324677,-3.844149,12.025325,46.956352,19.239244,-19.834711,30.160904
762,0,-136.618896,142.944321,40.194019,-41.916550,49.853985,51.338329,-3.905917,12.000327,46.936886,19.190987,-19.809587,30.130413
763,0,-136.668411,142.920700,40.192642,-41.937111,49.852421,51.356728,-3.906445,12.006769,46.937847,19.210957,-19.845459,30.126890
764,0,-136.680298,142.896378,40.208580,-41.941025,49.818409,51.396202,-3.911592,11.972608,46.960606,19.191452,-19.824728,30.128704
765,0,-136.740906,142.900513,40.212685,-41.970516,49.851536,51.455246,-3.953736,11.994362,46.975075,19.173166,-19.812698,30.174219
766,0,-136.828964,142.914703,40.266499,-42.013386,49.798985,51.487289,-3.966214,11.981610,46.987438,19.157148,-19.815546,30.160324
767,0,-136.836273,142.905502,40.272545,-42.025761,49.807457,51.500587,-3.965283,11.980942,46.993763,19.151533,-19.796675,30.129328
768,0,-136.873840,142.913940,40.276066,-42.016315,49.806610,51.504639,-3.948472,11.993093,46.976151,19.151566,-19.796576,30.113226
769,0,-136.958298,142.929962,40.248039,-42.027935,49.797024,51.507305,-3.953526,11.992114,46.970718,19.148052,-19.793058,30.100061
770,0,-136.965607,142.902390,40.204948,-42.083561,49.830208,51.513393,-3.962313,12.016441,46.957634,19.117846,-19.758297,30.120642
771,0,-136.997101,142.862717,40.156349,-42.079880,49.821270,51.497623,-4.005416,12.022656,46.971432,19.101957,-19.738394,30.126604
772,0,-137.024368,142.825302,40.063984,-42.147789,49.824974,51.420731,-3.993385,12.012093,46.949326,19.086685,-19.730888,30.098619
773,0,-137.044647,142.792114,40.012367,-42.155315,49.791260,51.407227,-4.063376,11.973422,46.956448,19.095869,-19.740778,30.137199
774,0,-137.086517,142.725098,39.914833,-42.214371,49.746754,51.382767,-4.101485,12.017519,46.944946,19.089830,-19.738939,30.176212
775,0,-137.148041,142.657867,39.811543,-42.278759,49.740837,51.374207,-4.167419,11.963047,46.952606,19.064461,-19.743473,30.220867
776,0,-137.250473,142.622604,39.758038,-42.341934,49.688751,51.358093,-4.218534,11.982201,46.976891,19.051910,-19.735210,30.274813
777,0,-137.258942,142.573380,39.743599,-42.416653,49.671665,51.374092,-4.218253,11.965814,47.050140,19.045765,-19.753973,30.329664
778,0,-137.321304,142.497498,39.736507,-42.429668,49.645943,51.402065,-4.226016,11.934415,47.073124,19.063929,-19.752579,30.346581
779,0,-137.467224,142.509262,39.814034,-42.424541,49.639633,51.419285,-4.208451,11.921571,47.069641,19.090059,-19.800201,30.335928
780,0,-137.410828,142.468201,39.696590,-42.383274,49.581230,51.449192,-4.118380,11.900507,47.088940,19.122587,-19.770931,30.353146
781,0,-137.393402,142.400604,39.686859,-42.316929,49.596878,51.523651,-4.092608,11.924977,47.127365,19.181925,-19.792706,30.381355
782,0,-137.421509,142.410599,39.651608,-42.283852,49.601994,51.587761,-4.026249,11.910105,47.181511,19.191345,-19.771519,30.409237
783,0,-137.404251,142.432693,39.597107,-42.276989,49.632866,51.621223,-4.002159,11.927930,47.219681,19.213596,-19.790482,30.410404
784,0,-137.400711,142.394592,39.564346,-42.276566,49.629700,51.646900,-3.944312,11.899000,47.224133,19.239433,-19.774614,30.422218
785,0,-137.422104,142.342529,39.498104,-42.259941,49.606518,51.665108,-3.995825,11.885121,47.203033,19.260208,-19.803265,30.426205
786,0,-137.423706,142.327942,39.440575,-42.275604,49.618153,51.656078,-3.936307,11.875809,47.226070,19.275091,-19.816252,30.404629
787,0,-137.456238,142.318970,39.352543,-42.306156,49.606403,51.644054,-3.973899,11.886139,47.188511,19.268623,-19.812239,30.391584
788,0,-137.487289,142.320786,39.326431,-42.311604,49.601669,51.616665,-3.984540,11.868561,47.191956,19.227472,-19.821617,30.376015
789,0,-137.528137,142.306335,39.215134,-42.364296,49.617340,51.550900,-4.066482,11.922400,47.134029,19.225550,-19.790531,30.325974
790,0,-137.560867,142.326797,39.182869,-42.391819,49.605377,51.532307,-4.079743,11.895680,47.104931,19.183973,-19.783411,30.325373
791,0,-137.603882,142.347122,39.124638,-42.448887,49.580448,51.471786,-4.133461,11.900576,47.079308,19.157188,-19.773378,30.301720
792,0,-137.631622,142.372986,39.071266,-42.519787,49.584415,51.426044,-4.155658,11.888301,47.067074,19.128778,-19.763691,30.319513
793,0,-137.628586,142.330597,39.024464,-42.538559,49.566357,51.411869,-4.168364,11.877341,47.058533,19.108450,-19.759869,30.315201
794,0,-137.687286,142.334457,39.022663,-42.591770,49.544758,51.381847,-4.205217,11.880543,47.047001,19.096851,-19.777445,30.316628
795,0,-137.703171,142.336105,39.019115,-42.592762,49.540573,51.384869,-4.226383,11.865900,47.061352,19.091618,-19.765682,30.300316
796,0,-137.689148,142.382156,38.955841,-42.595585,49.541252,51.429768,-4.198495,11.865849,47.065430,19.088737,-19.769220,30.292038
797,0,-137.711746,142.392914,38.966221,-42.558968,49.557789,51.431782,-4.190579,11.844443,47.093231,19.095547,-19.772892,30.296774
798,0,-137.672180,142.385864,38.958664,-42.512466,49.559914,51.440033,-4.169661,11.863857,47.090328,19.124222,-19.769835,30.324297
799,0,-137.676666,142.403473,38.939938,-42.482510,49.586502,51.459347,-4.141534,11.919461,47.100349,19.150660,-19.757994,30.338783
800,0,-137.682144,142.420624,38.921806,-42.457359,49.613171,51.481937,-4.113861,11.915504,47.093296,19.171474,-19.726583,30.324772
801,0,-137.694412,142.426880,38.924297,-42.454784,49.638069,51.502804,-4.058113,11.929385,47.105534,19.173262,-19.730900,30.349775
802,0,-137.665924,142.426956,38.853714,-42.412792,49.651657,51.505676,-4.055295,11.946616,47.117386,19.177887,-19.728045,30.353035
803,0,-137.683334,142.415314,38.844868,-42.403755,49.643436,51.512428,-4.020273,11.963339,47.120739,19.188337,-19.740793,30.315281
804,0,-137.742233,142.421799,38.831284,-42.400272,49.646774,51.511063,-4.013704,11.966175,47.116615,19.236300,-19.737028,30.309885
805,0,-137.746735,142.403366,38.826744,-42.406689,49.640400,51.533257,-3.999430,11.935516,47.118732,19.240049,-19.735519,30.327963
806,0,-137.818192,142.415695,38.856194,-42.388073,49.613522,51.577866,-4.014085,11.961037,47.126850,19.246555,-19.727055,30.364058
807,0,-137.816879,142.376053,38.849941,-42.390266,49.602695,51.604843,-3.980998,11.920712,47.174389,19.270557,-19.735252,30.369463
808,0,-137.871658,142.336655,38.869141,-42.383820,49.571507,51.645279,-4.021211,11.913728,47.178440,19.277060,-19.761543,30.361444
809,0,-137.909286,142.299988,38.898678,-42.397060,49.554729,51.658619,-3.959128,11.881408,47.206421,19.268324,-19.770374,30.372520
810,0,-137.951248,142.281296,38.958191,-42.404453,49.534058,51.718811,-3.993618,11.859273,47.203632,19.296675,-19.780952,30.392883
811,0,-138.034058,142.294617,38.998566,-42.378750,49.496174,51.790249,-3.964428,11.836598,47.230820,19.305635,-19.786045,30.412193
812,0,-138.051437,142.279892,39.039864,-42.367657,49.483097,51.860294,-3.907321,11.806253,47.307190,19.363777,-19.850630,30.399282
813,0,-138.013748,142.250046,39.123131,-42.290340,49.452145,51.953362,-3.807790,11.757288,47.399639,19.401339,-19.857353,30.412590
814,0,-138.011002,142.265244,39.237644,-42.209576,49.411938,52.109905,-3.708848,11.742198,47.482040,19.492451,-19.890779,30.451422
815,0,-137.976730,142.280243,39.369175,-42.134071,49.411522,52.203331,-3.631662,11.720992,47.517750,19.567139,-19.900152,30.476866
816,0,-137.872345,142.318436,39.481247,-41.991173,49.387424,52.351440,-3.511550,11.666030,47.588642,19.674477,-19.944189,30.516876
817,0,-137.846436,142.372757,39.637554,-41.869282,49.411629,52.493191,-3.401282,11.677099,47.672455,19.787390,-19.985853,30.565948
818,0,-137.704575,142.388229,39.871475,-41.685425,49.366474,52.697277,-3.269377,11.628952,47.792751,19.863037,-20.020782,30.630026
819,0,-137.788422,142.452682,40.323750,-41.523827,49.342049,52.866158,-3.106889,11.580699,47.901306,19.965933,-20.103191,30.658970
820,0,-137.677795,142.540390,40.506821,-41.360294,49.321892,53.110100,-2.989442,11.516033,48.011723,20.075148,-20.136616,30.701479
821,0,-137.577774,142.635025,40.849773,-41.133564,49.266827,53.389801,-2.816659,11.476707,48.121830,20.198032,-20.235655,30.762213
822,0,-137.501389,142.743576,41.192253,-40.935627,49.224800,53.623688,-2.640051,11.423986,48.246567,20.320469,-20.269609,30.796341
823,0,-137.457169,142.901428,41.599323,-40.724312,49.231621,53.891933,-2.423261,11.389276,48.413391,20.461006,-20.323601,30.826178
824,0,-137.347885,143.028015,41.989613,-40.463989,49.185570,54.184849,-2.250436,11.324547,48.540493,20.567430,-20.376465,30.873425
825,0,-137.153214,143.153961,42.375038,-40.185780,49.240311,54.480042,-2.057028,11.273339,48.666645,20.722740,-20.405376,30.913437
826,0,-137.038361,143.284027,42.758160,-39.868469,49.258400,54.725643,-1.861669,11.272247,48.778828,20.816645,-20.425936,30.943708
827,0,-136.838333,143.416260,43.080402,-39.646042,49.244892,54.968727,-1.698395,11.246352,48.891689,20.897997,-20.521183,30.974667
828,0,-136.706070,143.569077,43.343864,-39.446407,49.273510,55.190430,-1.523207,11.232224,48.970676,20.992914,-20.590885,31.000168
829,0,-136.516144,143.658798,43.633663,-39.112232,49.331966,55.272823,-1.320971,11.177846,49.101982,21.087551,-20.607079,31.040573
830,0,-136.366623,143.795914,43.850430,-39.250141,49.560394,55.419205,-1.168934,11.159793,49.256157,21.176102,-20.605734,31.044054
831,0,-136.187943,143.889893,44.036121,-38.875698,49.294003,55.760769,-1.114044,11.151929,49.253036,21.263153,-20.704231,31.068684
832,0,-136.051697,143.923019,44.241459,-38.735649,49.304089,55.924931,-1.014085,11.089305,49.334568,21.316059,-20.781536,31.100956
833,0,-135.924347,143.931137,44.346703,-38.611305,49.321529,56.024410,-0.939010,11.055753,49.397228,21.382582,-20.784731,31.147985
834,0,-135.751465,143.976074,44.461998,-38.449375,49.276688,56.137405,-0.619574,10.973187,49.531437,21.569605,-20.702637,31.163031
835,0,-135.593063,143.972900,44.546844,-38.340134,49.212494,56.237164,-0.514110,10.931883,49.622536,21.663311,-20.797421,31.199522
836,0,-135.487579,143.942841,44.671425,-38.287426,49.199184,56.334347,-0.640136,10.894750,49.579735,21.562307,-21.021305,31.210522
837,0,-135.376678,143.906586,44.792740,-38.215248,49.134571,56.427219,-0.584977,10.848740,49.657734,21.612711,-21.090298,31.223347
838,0,-135.334686,143.896576,44.937202,-38.144535,49.048149,56.596973,-0.539046,10.733558,49.767723,21.660109,-21.155512,31.252977
839,0,-135.241333,143.828781,45.063026,-38.018013,48.992081,56.758739,-0.433788,10.669422,49.856262,21.706490,-21.230576,31.293526
840,0,-135.154800,143.799118,45.231186,-37.910019,49.012226,56.932034,-0.321873,10.640203,49.955196,21.769678,-21.284609,31.298439
841,0,-135.132614,143.759537,45.318802,-37.785728,48.993690,57.085392,-0.206155,10.588978,50.051220,21.843964,-21.318119,31.335007
842,0,-135.080109,143.689117,45.417522,-37.686043,48.945267,57.234669,-0.069222,10.548402,50.132385,21.930836,-21.378153,31.339857
843,0,-135.032394,143.609039,45.505859,-37.582306,48.930119,57.349018,0.063475,10.515564,50.247066,22.014818,-21.402943,31.347857
844,0,-134.971420,143.521515,45.588924,-37.540340,48.934410,57.480064,0.203249,10.443144,50.324574,22.121548,-21.462788,31.419233
845,0,-134.929413,143.385254,45.633717,-37.449871,48.856014,57.567810,0.302299,10.389894,50.396988,22.214306,-21.508163,31.438686
846,0,-134.891510,143.270020,45.644943,-37.405571,48.777863,57.623219,0.371976,10.328883,50.465015,22.484472,-21.556784,31.553078
847,0,-134.848557,143.119781,45.632969,-37.254158,48.651234,57.662331,0.447874,10.236955,50.552128,22.466190,-21.628923,31.527664
848,0,-134.847290,142.947052,45.679077,-37.169456,48.477482,57.635662,0.508440,10.139363,50.609535,22.556641,-21.793602,31.552217
849,0,-134.799683,142.803192,45.684296,-37.126442,48.297134,57.644421,0.605055,10.014449,50.672291,22.720081,-21.912878,31.602762
850,0,-134.742584,142.635696,45.679234,-37.047829,48.234276,57.748608,0.679564,9.923870,50.756371,22.834347,-22.039787,31.677238
851,0,-134.686661,142.463257,45.646114,-36.933620,48.078346,57.842049,0.749700,9.775424,50.816994,22.937262,-22.161140,31.754196
852,0,-134.542419,142.286621,45.643860,-36.790009,47.980576,57.881210,0.836972,9.706431,50.897655,23.043142,-22.290041,31.768509
853,0,-134.393829,142.148743,45.617428,-36.682171,47.916656,57.964428,1.024472,9.665354,50.997158,23.239719,-22.400114,31.834085
854,0,-134.210876,142.006287,45.591789,-36.486752,47.838940,58.076347,1.203410,9.576696,51.073681,23.413141,-22.482687,31.907778
855,0,-134.084747,141.885330,45.561516,-36.349995,47.817276,58.153816,1.369623,9.502663,51.158680,23.584967,-22.523792,31.908934
856,0,-133.994736,141.807495,45.558796,-36.199890,47.777184,58.265671,1.577799,9.406624,51.290573,23.759966,-22.641924,31.971228
857,0,-133.941040,141.777481,45.555210,-36.038410,47.703060,58.363834,1.724263,9.367974,51.332306,23.895578,-22.697784,32.033188
858,0,-133.908325,141.788361,45.486031,-35.906372,47.647411,58.435398,1.892761,9.275635,51.487206,24.064333,-22.767344,32.089634
859,0,-133.834412,141.681625,45.483559,-35.780094,47.574055,58.527607,1.996084,9.240645,51.540226,24.217432,-22.853634,32.155060
860,0,-133.624954,141.524612,45.489487,-35.636303,47.470360,58.562370,2.125973,9.158950,51.574287,24.340088,-22.970503,32.202473
861,0,-133.417999,141.266617,45.522163,-35.481003,47.340240,58.598446,2.227093,8.976831,51.656101,24.475632,-23.100996,32.246490
862,0,-133.219223,141.101456,45.490952,-35.382763,47.234440,58.624432,2.313454,8.886341,51.738018,24.599733,-23.219004,32.293762
863,0,-133.005371,140.927170,45.454952,-35.450481,47.206203,58.738167,2.435264,8.806138,51.773098,24.716835,-23.349594,32.324406
864,0,-132.875320,140.777542,45.376919,-35.311138,47.170258,58.656563,2.533524,8.740245,51.784561,24.812151,-23.430546,32.363586
865,0,-132.702942,140.667587,45.305466,-35.272430,47.106018,58.674557,2.596158,8.746073,51.774914,24.827402,-23.598339,32.341713
866,0,-132.581604,140.594421,45.197594,-35.149055,47.135254,58.553288,2.721780,8.717257,51.796429,24.967857,-23.634649,32.376514
867,0,-132.485367,140.511490,45.095314,-35.073833,47.082195,58.484146,2.801582,8.715995,51.755890,25.067476,-23.715027,32.411018
868,0,-132.458679,140.475571,45.057693,-34.972347,47.035572,58.251236,2.861614,8.750309,51.704330,25.160807,-23.782272,32.430061
869,0,-132.433319,140.409988,44.954346,-35.008606,46.947662,58.115517,2.885515,8.746736,51.628708,25.211136,-23.774651,32.429333
870,0,-132.460464,140.375732,44.810547,-35.137154,46.962807,57.935169,2.888282,8.785275,51.568745,25.208414,-23.780607,32.423462
871,0,-132.428513,140.378937,44.717148,-35.209072,46.970623,57.766273,2.745183,8.787082,51.505817,25.191626,-23.772326,32.413097
872,0,-132.491623,140.427979,44.568043,-35.268559,46.991741,57.609032,2.664583,8.839889,51.469376,25.258389,-23.591280,32.479538
873,0,-132.499146,140.433945,44.442760,-35.402870,47.084801,57.401661,2.614526,8.935325,51.320644,25.025917,-23.744818,32.419361
874,0,-132.507462,140.516037,44.279476,-35.481495,47.140659,57.117126,2.609365,8.967190,51.345821,25.199446,-23.445801,32.449936
875,0,-132.506866,140.601669,44.081173,-35.602917,47.266193,56.877480,2.474913,9.109608,51.177235,25.142399,-23.364004,32.430199
876,0,-132.560318,140.725571,43.892673,-35.696796,47.404053,56.599174,2.315369,9.295733,50.950462,24.890661,-23.459566,32.360233
877,0,-132.600159,140.814331,43.709484,-35.823803,47.519863,56.327595,2.146962,9.390755,50.782326,24.759472,-23.355261,32.317802
878,0,-132.624603,140.903854,43.514072,-35.940735,47.575706,56.066189,2.111321,9.480888,50.724632,24.813471,-23.105293,32.347340
879,0,-132.743271,141.008179,43.305683,-36.087944,47.670204,55.791096,1.916083,9.591846,50.516788,24.680813,-23.088984,32.328190
880,0,-132.816208,141.103546,43.128071,-36.215843,47.731796,55.510921,1.771529,9.697594,50.431374,24.585499,-22.924229,32.263790
881,0,-132.956253,141.184357,42.901020,-36.366665,47.778915,55.260437,1.624957,9.791618,50.306889,24.496874,-22.841536,32.249523
882,0,-133.038803,141.176834,42.704712,-36.547199,47.805904,55.021400,1.487987,9.852762,50.197998,24.384279,-22.769222,32.225552
883,0,-133.167862,141.236572,42.480122,-36.729794,47.878056,54.721424,1.305800,9.906375,50.081909,24.253096,-22.701115,32.189236
884,0,-133.301132,141.279434,42.246010,-36.981781,47.923225,54.451542,1.158785,10.006130,49.938618,24.107424,-22.593897,32.167576
885,0,-133.439133,141.270905,41.994652,-37.195629,47.974457,54.137791,0.940376,10.116852,49.807449,24.014637,-22.533768,32.116928
886,0,-133.521912,141.276932,41.719250,-37.427052,48.008049,53.864052,0.732652,10.167761,49.679665,23.845209,-22.479326,32.092926
887,0,-133.785568,141.332077,41.556225,-37.596817,48.018208,53.618443,0.534978,10.220382,49.533718,23.703564,-22.449915,32.053261
888,0,-133.836014,141.284225,41.211418,-37.778587,48.052517,53.332035,0.307530,10.301526,49.355236,23.580235,-22.377979,32.064011
889,0,-133.947006,141.321304,40.970768,-38.003452,48.082619,53.049191,0.101673,10.381610,49.185680,23.419561,-22.276766,32.007328
890,0,-134.062347,141.313889,40.698994,-38.188240,48.133385,52.800549,-0.128216,10.456250,49.019363,23.285492,-22.234882,31.967051
891,0,-134.131332,141.327911,40.489841,-38.388691,48.127014,52.569687,-0.358847,10.501801,48.879108,23.142733,-22.169510,31.923130
892,0,-134.220734,141.309341,40.243446,-38.607769,48.161190,52.332474,-0.573589,10.543789,48.775532,22.986624,-22.125071,31.870592
893,0,-134.338623,141.316971,40.016712,-38.773720,48.213390,52.138222,-0.724271,10.595542,48.654037,22.921530,-22.023952,31.893167
894,0,-134.469925,141.315613,39.800430,-38.922726,48.213181,51.937878,-0.872440,10.649554,48.553680,22.760378,-21.958645,31.854097
895,0,-134.569870,141.300232,39.596287,-39.110378,48.240837,51.770260,-1.086150,10.670927,48.456841,22.581682,-22.008749,31.829391
896,0,-134.694092,141.292099,39.454254,-39.198177,48.283974,51.587070,-1.158328,10.765051,48.412262,22.517284,-21.837112,31.774431
897,0,-134.755310,141.292801,39.244045,-39.383129,48.253704,51.467682,-1.320181,10.738969,48.319469,22.433018,-21.909588,31.784941
898,0,-134.819382,141.291946,39.072964,-39.509010,48.285416,51.364174,-1.410110,10.841282,48.234356,22.306541,-21.775209,31.719740
899,0,-134.925308,141.305069,38.905247,-39.647446,48.307987,51.252846,-1.531999,10.892008,48.163933,22.204691,-21.670183,31.685743
900,0,-134.968277,141.288422,38.764587,-39.733372,48.317253,51.167007,-1.673168,10.851178,48.092136,22.076891,-21.775297,31.704227
901,0,-135.054398,141.238434,38.622356,-39.875633,48.310352,51.059761,-1.738340,10.873712,48.051762,22.015652,-21.724892,31.672951
902,0,-135.116150,141.227600,38.491905,-39.962284,48.292366,51.003975,-1.842390,10.891020,48.019066,21.966900,-21.731293,31.668428
903,0,-135.156708,141.216782,38.427006,-40.078617,48.304108,50.918243,-1.901361,10.881055,47.992943,21.883951,-21.718346,31.673170
904,0,-135.166199,141.152817,38.310852,-40.147038,48.275600,50.836662,-1.980670,10.876756,47.960030,21.843708,-21.688847,31.649582
905,0,-135.217834,141.124039,38.286449,-40.207199,48.241707,50.813484,-2.058939,10.870408,47.911968,21.821747,-21.726076,31.657331
906,0,-135.233658,141.079117,38.197514,-40.253227,48.229591,50.762520,-2.092981,10.846276,47.899673,21.784904,-21.700361,31.618994
907,0,-135.259537,141.059372,38.167366,-40.274361,48.211636,50.737919,-2.111778,10.868967,47.876122,21.782118,-21.695152,31.633224
